sample_count,sample_time,green,green2,ir,red,acceleration_x,acceleration_y,acceleration_z,op_mode,hr,hr_confidence,rr,rr_confidence,activity,r,spo2_confidence,spo2,spo2_percentage_complete,spo2_low_snr,spo2_motion,spo2_low_pi,spo2_unreliable_r,spo2_state,scd_state,walking_steps,running_steps,calorie,totalActEnergy,ibiOffset,timestamp,timestamp_millis
0,2025-03-17-22:56:16,107552,106638,14360,14521,0.102,-0.363,0.938,0,60,0,0.0,0,1,0.0,0,0.0,0,0,0,0,0,0,2,0,0,0.0,0.0,0,2025-03-17-22:56:16,1742244976311
1,2025-03-17-22:56:16,171796,200418,14327,14495,0.09,-0.386,0.93,0,60,0,0.0,0,1,0.0,0,0.0,0,0,0,0,0,0,2,0,0,0.0,0.0,0,2025-03-17-22:56:16,1742244976345
2,2025-03-17-22:56:16,164105,195985,14311,14482,0.098,-0.368,0.927,0,60,0,0.0,0,1,0.0,0,0.0,0,0,0,0,0,0,2,0,0,0.0,0.0,0,2025-03-17-22:56:16,1742244976378
3,2025-03-17-22:56:16,163829,196384,14291,14446,0.1,-0.36,0.928,0,60,0,0.0,0,1,0.0,0,0.0,0,0,0,0,0,0,2,0,0,0.0,0.0,0,2025-03-17-22:56:16,1742244976411
4,2025-03-17-22:56:16,163986,197162,14270,14420,0.086,-0.387,0.924,0,60,0,0.0,0,1,0.0,0,0.0,0,0,0,0,0,0,2,0,0,0.0,0.0,0,2025-03-17-22:56:16,1742244976461
5,2025-03-17-22:56:16,164579,198522,14248,14381,0.095,-0.331,0.939,0,60,0,0.0,0,1,0.0,0,0.0,0,0,0,0,0,0,2,0,0,0.0,0.0,0,2025-03-17-22:56:16,1742244976495
6,2025-03-17-22:56:16,164818,199822,14229,14352,0.08,-0.369,0.932,0,60,0,0.0,0,1,0.0,0,0.0,0,0,0,0,0,0,2,0,0,0.0,0.0,0,2025-03-17-22:56:16,1742244976528
7,2025-03-17-22:56:16,164904,200826,14224,14354,0.072,-0.403,0.922,0,60,0,0.0,0,1,0.0,0,0.0,0,0,0,0,0,0,2,0,0,0.0,0.0,0,2025-03-17-22:56:16,1742244976561
8,2025-03-17-22:56:16,164816,201717,14235,14359,0.075,-0.383,0.927,0,60,0,0.0,0,1,0.0,0,0.0,0,0,0,0,0,0,2,0,0,0.0,0.0,0,2025-03-17-22:56:16,1742244976595
9,2025-03-17-22:56:16,164875,202412,14246,14376,0.067,-0.389,0.921,0,60,0,0.0,0,1,0.0,0,0.0,0,0,0,0,0,0,2,0,0,0.0,0.0,0,2025-03-17-22:56:16,1742244976628
10,2025-03-17-22:56:16,165673,203262,14253,14369,0.062,-0.362,0.921,0,60,0,0.0,0,1,0.0,0,0.0,0,0,0,0,0,0,2,0,0,0.0,0.0,0,2025-03-17-22:56:16,1742244976678
11,2025-03-17-22:56:16,165473,204002,14223,14339,0.077,-0.374,0.927,0,60,0,0.0,0,1,0.0,0,0.0,0,0,0,0,0,0,2,0,0,0.0,0.0,0,2025-03-17-22:56:16,1742244976711
12,2025-03-17-22:56:16,164918,204376,28560,28083,0.079,-0.385,0.924,0,60,0,0.0,0,1,0.0,0,0.0,0,0,0,0,0,0,2,0,0,0.0,0.0,0,2025-03-17-22:56:16,1742244976744
13,2025-03-17-22:56:16,164666,204683,28530,28055,0.063,-0.372,0.925,0,60,0,0.0,0,1,0.0,0,0.0,0,0,0,0,0,0,2,0,0,0.0,0.0,0,2025-03-17-22:56:16,1742244976778
14,2025-03-17-22:56:16,164493,205047,28531,28047,0.072,-0.378,0.928,0,60,0,0.0,0,1,0.0,0,0.0,0,0,0,0,0,0,2,0,0,0.0,0.0,0,2025-03-17-22:56:16,1742244976811
15,2025-03-17-22:56:16,164225,205289,28532,28042,0.072,-0.381,0.924,0,60,0,0.0,0,1,0.0,0,0.0,0,0,0,0,0,0,2,0,0,0.0,0.0,0,2025-03-17-22:56:16,1742244976845
16,2025-03-17-22:56:16,163734,205158,28527,28043,0.071,-0.384,0.924,0,60,0,0.0,0,1,0.0,0,0.0,0,0,0,0,0,0,2,0,0,0.0,0.0,0,2025-03-17-22:56:16,1742244976895
17,2025-03-17-22:56:16,162061,203122,28493,28042,0.068,-0.375,0.928,0,60,0,0.0,0,1,0.0,0,0.0,0,0,0,0,0,0,2,0,0,0.0,0.0,0,2025-03-17-22:56:16,1742244976928
18,2025-03-17-22:56:16,160119,200469,28436,28027,0.069,-0.38,0.923,0,60,0,0.0,0,1,0.0,0,0.0,0,0,0,0,0,0,2,0,0,0.0,0.0,0,2025-03-17-22:56:16,1742244976961
19,2025-03-17-22:56:16,159101,198812,28400,28023,0.07,-0.389,0.923,0,60,0,0.0,0,1,0.0,0,0.0,0,0,0,0,0,0,2,0,0,0.0,0.0,0,2025-03-17-22:56:16,1742244976995
20,2025-03-17-22:56:16,159439,199187,28381,28006,0.072,-0.393,0.921,0,60,0,0.0,0,1,0.0,0,0.0,0,0,0,0,0,0,2,0,0,0.0,0.0,0,2025-03-17-22:56:17,1742244977028
21,2025-03-17-22:56:16,160187,200586,28393,28000,0.081,-0.361,0.933,0,60,0,0.0,0,1,0.0,0,0.0,0,0,0,0,0,0,2,0,0,0.0,0.0,0,2025-03-17-22:56:17,1742244977061
22,2025-03-17-22:56:16,160899,201866,28455,28051,0.072,-0.387,0.919,0,60,0,0.0,0,1,0.0,0,0.0,0,0,0,0,0,0,2,0,0,0.0,0.0,0,2025-03-17-22:56:17,1742244977111
23,2025-03-17-22:56:17,161527,202773,28549,28154,0.077,-0.402,0.922,0,60,0,0.0,0,1,0.0,0,0.0,0,0,0,0,0,0,2,0,0,0.0,0.0,0,2025-03-17-22:56:17,1742244977144
24,2025-03-17-22:56:17,162016,203159,56415,55413,0.077,-0.392,0.92,0,60,0,0.0,0,1,0.0,0,0.0,0,0,0,0,0,0,2,0,0,0.0,0.0,24,2025-03-17-22:56:17,1742244977178
25,2025-03-17-22:56:17,162169,203076,56669,55819,0.071,-0.381,0.935,0,60,0,0.0,0,1,0.0,0,0.0,0,0,0,0,0,0,2,0,0,0.0,0.0,0,2025-03-17-22:56:17,1742244977211
26,2025-03-17-22:56:17,162185,203095,56759,55984,0.068,-0.401,0.912,0,60,0,0.0,0,1,0.0,0,0.0,0,0,0,0,0,0,2,0,0,0.0,0.0,0,2025-03-17-22:56:17,1742244977244
27,2025-03-17-22:56:17,162215,203678,56789,56027,0.072,-0.388,0.919,0,60,0,0.0,0,1,0.0,0,0.0,0,0,0,0,0,0,2,0,0,0.0,0.0,0,2025-03-17-22:56:17,1742244977294
28,2025-03-17-22:56:17,162305,204414,56883,56130,0.067,-0.376,0.927,0,60,0,0.0,0,1,0.0,0,0.0,0,0,0,0,0,0,2,0,0,0.0,0.0,0,2025-03-17-22:56:17,1742244977311
29,2025-03-17-22:56:17,162427,205128,56898,56148,0.061,-0.386,0.922,0,60,0,0.0,0,1,0.0,0,0.0,0,0,0,0,0,0,2,0,0,0.0,0.0,0,2025-03-17-22:56:17,1742244977361
30,2025-03-17-22:56:17,162648,205769,56852,56084,0.069,-0.364,0.926,0,60,0,0.0,0,1,0.0,0,0.0,0,0,0,0,0,0,2,0,0,0.0,0.0,0,2025-03-17-22:56:17,1742244977394
31,2025-03-17-22:56:17,162602,206356,56764,55961,0.069,-0.376,0.923,0,60,0,0.0,0,1,0.0,0,0.0,0,0,0,0,0,0,2,0,0,0.0,0.0,0,2025-03-17-22:56:17,1742244977427
32,2025-03-17-22:56:17,162379,206804,56670,55839,0.072,-0.385,0.923,0,60,0,0.0,0,1,0.0,0,0.0,0,0,0,0,0,0,2,0,0,0.0,0.0,0,2025-03-17-22:56:17,1742244977461
33,2025-03-17-22:56:17,162422,207250,56613,55741,0.066,-0.392,0.916,0,60,0,0.0,0,1,0.0,0,0.0,0,0,0,0,0,0,2,0,0,0.0,0.0,0,2025-03-17-22:56:17,1742244977511
34,2025-03-17-22:56:17,162705,207802,56567,55638,0.073,-0.382,0.929,0,60,0,0.0,0,1,0.0,0,0.0,0,0,0,0,0,0,2,0,0,0.0,0.0,0,2025-03-17-22:56:17,1742244977544
35,2025-03-17-22:56:17,162058,207786,56562,55632,0.069,-0.376,0.928,0,60,0,0.0,0,1,0.0,0,0.0,0,0,0,0,0,0,2,0,0,0.0,0.0,0,2025-03-17-22:56:17,1742244977578
36,2025-03-17-22:56:17,159669,206136,58003,57097,0.069,-0.364,0.932,0,60,0,0.0,0,1,0.0,0,0.0,0,0,0,0,0,0,2,0,0,0.0,0.0,0,2025-03-17-22:56:17,1742244977611
37,2025-03-17-22:56:17,157055,204624,57906,57048,0.072,-0.368,0.93,0,60,0,0.0,0,1,0.0,0,0.0,0,0,0,0,0,0,2,0,0,0.0,0.0,0,2025-03-17-22:56:17,1742244977644
38,2025-03-17-22:56:17,155367,204219,57816,57005,0.072,-0.384,0.928,0,60,0,0.0,0,1,0.0,0,0.0,0,0,0,0,0,0,2,0,0,0.0,0.0,0,2025-03-17-22:56:17,1742244977711
39,2025-03-17-22:56:17,154697,204844,57717,56900,0.076,-0.356,0.925,0,60,0,0.0,0,1,0.0,0,0.0,0,0,0,0,0,0,2,0,0,0.0,0.0,0,2025-03-17-22:56:17,1742244977744
40,2025-03-17-22:56:17,154250,205701,57568,56721,0.077,-0.389,0.919,0,60,0,0.0,0,1,0.0,0,0.0,0,0,0,0,0,0,2,0,0,0.0,0.0,0,2025-03-17-22:56:17,1742244977777
41,2025-03-17-22:56:17,154168,206423,57434,56567,0.056,-0.409,0.921,0,60,0,0.0,0,1,0.0,0,0.0,0,0,0,0,0,0,2,0,0,0.0,0.0,0,2025-03-17-22:56:17,1742244977811
42,2025-03-17-22:56:17,154791,207435,57368,56452,0.079,-0.37,0.935,0,60,0,0.0,0,1,0.0,0,0.0,0,0,0,0,0,0,2,0,0,0.0,0.0,0,2025-03-17-22:56:17,1742244977861
43,2025-03-17-22:56:17,155404,208451,57381,56425,0.068,-0.384,0.925,0,60,0,0.0,0,1,0.0,0,0.0,0,0,0,0,0,0,2,0,0,0.0,0.0,0,2025-03-17-22:56:17,1742244977911
44,2025-03-17-22:56:17,155397,209081,57478,56520,0.072,-0.37,0.93,0,60,0,0.0,0,1,0.0,0,0.0,0,0,0,0,0,0,2,0,0,0.0,0.0,0,2025-03-17-22:56:17,1742244977944
45,2025-03-17-22:56:17,154987,209414,57574,56634,0.069,-0.379,0.927,0,60,0,0.0,0,1,0.0,0,0.0,0,0,0,0,0,0,2,0,0,0.0,0.0,0,2025-03-17-22:56:17,1742244977977
46,2025-03-17-22:56:17,154708,209719,57624,56732,0.065,-0.366,0.931,0,60,0,0.0,0,1,0.0,0,0.0,0,0,0,0,0,0,2,0,0,0.0,0.0,0,2025-03-17-22:56:18,1742244978011
47,2025-03-17-22:56:17,154732,210102,57612,56737,0.068,-0.381,0.922,0,60,0,0.0,0,1,0.0,0,0.0,0,0,0,0,0,0,2,0,0,0.0,0.0,0,2025-03-17-22:56:18,1742244978044
48,2025-03-17-22:56:18,154824,210465,57589,56704,0.064,-0.392,0.921,0,60,0,0.0,0,1,0.0,0,0.0,0,0,0,0,0,0,2,0,0,0.0,0.0,0,2025-03-17-22:56:18,1742244978111
49,2025-03-17-22:56:18,154840,210700,57601,56702,0.067,-0.383,0.927,0,60,0,0.0,0,1,0.0,0,0.0,0,0,0,0,0,0,2,0,0,0.0,0.0,25,2025-03-17-22:56:18,1742244978144
50,2025-03-17-22:56:18,154746,210876,57614,56713,0.067,-0.38,0.925,0,60,0,0.0,0,1,0.0,0,0.0,0,0,0,0,0,0,2,0,0,0.0,0.0,0,2025-03-17-22:56:18,1742244978177
51,2025-03-17-22:56:18,154517,210992,57612,56699,0.063,-0.389,0.924,0,60,0,0.0,0,1,0.0,0,0.0,0,0,0,0,0,0,2,0,0,0.0,0.0,0,2025-03-17-22:56:18,1742244978212
52,2025-03-17-22:56:18,154175,211018,57598,56683,0.063,-0.383,0.922,0,60,0,0.0,0,1,0.0,0,0.0,0,0,0,0,0,0,2,0,0,0.0,0.0,0,2025-03-17-22:56:18,1742244978245
53,2025-03-17-22:56:18,153818,210981,57603,56697,0.061,-0.386,0.923,0,60,0,0.0,0,1,0.0,0,0.0,0,0,0,0,0,0,2,0,0,0.0,0.0,0,2025-03-17-22:56:18,1742244978312
54,2025-03-17-22:56:18,153209,210570,57587,56708,0.057,-0.407,0.92,0,60,0,0.0,0,1,0.0,0,0.0,0,0,0,0,0,0,2,0,0,0.0,0.0,0,2025-03-17-22:56:18,1742244978345
55,2025-03-17-22:56:18,151104,208227,57485,56688,0.065,-0.37,0.928,0,60,0,0.0,0,0,0.0,0,0.0,0,0,0,0,0,0,2,0,0,0.0,0.0,0,2025-03-17-22:56:18,1742244978379
56,2025-03-17-22:56:18,148599,205774,57365,56642,0.061,-0.394,0.92,0,60,0,0.0,0,0,0.0,0,0.0,0,0,0,0,0,0,2,0,0,0.0,0.0,0,2025-03-17-22:56:18,1742244978412
57,2025-03-17-22:56:18,146809,204258,57307,56598,0.062,-0.388,0.921,0,60,0,0.0,0,0,0.0,0,0.0,0,0,0,0,0,0,2,0,0,0.0,0.0,0,2025-03-17-22:56:18,1742244978445
58,2025-03-17-22:56:18,145810,203761,57267,56539,0.069,-0.393,0.918,0,60,0,0.0,0,0,0.0,0,0.0,0,0,0,0,0,0,2,0,0,0.0,0.0,0,2025-03-17-22:56:18,1742244978512
59,2025-03-17-22:56:18,145354,203800,57271,56525,0.059,-0.398,0.916,0,60,0,0.0,0,0,0.0,0,0.0,0,0,0,0,0,0,2,0,0,0.0,0.0,0,2025-03-17-22:56:18,1742244978545
60,2025-03-17-22:56:18,145280,204104,57287,56520,0.06,-0.395,0.918,0,60,0,0.0,0,0,0.0,0,0.0,0,0,0,0,0,0,2,0,0,0.0,0.0,0,2025-03-17-22:56:18,1742244978579
61,2025-03-17-22:56:18,145555,204646,57322,56534,0.064,-0.398,0.917,0,60,0,0.0,0,0,0.0,0,0.0,0,0,0,0,0,0,2,0,0,0.0,0.0,0,2025-03-17-22:56:18,1742244978628
62,2025-03-17-22:56:18,145929,205180,57379,56572,0.068,-0.394,0.914,0,60,0,0.0,0,0,0.0,0,0.0,0,0,0,0,0,0,2,0,0,0.0,0.0,0,2025-03-17-22:56:18,1742244978661
63,2025-03-17-22:56:18,146260,205617,57549,56781,0.068,-0.384,0.925,0,60,0,0.0,0,0,0.0,0,0.0,0,0,0,0,0,0,2,0,0,0.0,0.0,0,2025-03-17-22:56:18,1742244978711
64,2025-03-17-22:56:18,146059,205575,57909,57274,0.066,-0.385,0.925,0,60,0,0.0,0,0,0.0,0,0.0,0,0,0,0,0,0,2,0,0,0.0,0.0,0,2025-03-17-22:56:18,1742244978745
65,2025-03-17-22:56:18,145649,205119,58159,57630,0.066,-0.376,0.928,0,60,0,0.0,0,0,0.0,0,0.0,0,0,0,0,0,0,2,0,0,0.0,0.0,0,2025-03-17-22:56:18,1742244978777
66,2025-03-17-22:56:18,145810,204818,58275,57813,0.06,-0.424,0.91,0,60,0,0.0,0,0,0.0,0,0.0,0,0,0,0,0,0,2,0,0,0.0,0.0,0,2025-03-17-22:56:18,1742244978811
67,2025-03-17-22:56:18,146514,204863,58324,57866,0.059,-0.408,0.913,0,60,0,0.0,0,0,0.0,0,0.0,0,0,0,0,0,0,2,0,0,0.0,0.0,0,2025-03-17-22:56:18,1742244978860
68,2025-03-17-22:56:18,147472,205653,58290,57777,0.071,-0.384,0.924,0,60,0,0.0,0,0,0.0,0,0.0,0,0,0,0,0,0,2,0,0,0.0,0.0,0,2025-03-17-22:56:18,1742244978910
69,2025-03-17-22:56:18,148930,207227,58140,57578,0.078,-0.389,0.918,0,60,0,0.0,0,0,0.0,0,0.0,0,0,0,0,0,0,2,0,0,0.0,0.0,0,2025-03-17-22:56:18,1742244978944
70,2025-03-17-22:56:18,151075,208872,57897,57279,0.062,-0.395,0.918,0,60,0,0.0,0,0,0.0,0,0.0,0,0,0,0,0,0,2,0,0,0.0,0.0,0,2025-03-17-22:56:18,1742244978977
71,2025-03-17-22:56:18,153953,210212,57658,56964,0.064,-0.403,0.908,0,60,0,0.0,0,0,0.0,0,0.0,0,0,0,0,0,0,2,0,0,0.0,0.0,0,2025-03-17-22:56:19,1742244979011
72,2025-03-17-22:56:18,156615,211273,57659,56965,0.06,-0.405,0.915,0,60,0,0.0,0,0,0.0,0,0.0,0,0,0,0,0,0,2,0,0,0.0,0.0,0,2025-03-17-22:56:19,1742244979060
73,2025-03-17-22:56:19,157927,212080,57735,57061,0.086,-0.405,0.927,0,60,0,0.0,0,0,0.0,0,0.0,0,0,0,0,0,0,2,0,0,0.0,0.0,0,2025-03-17-22:56:19,1742244979111
74,2025-03-17-22:56:19,156907,212101,57864,57233,0.054,-0.415,0.911,0,60,0,0.0,0,0,0.0,0,0.0,0,0,0,0,0,0,2,0,0,0.0,0.0,25,2025-03-17-22:56:19,1742244979144
75,2025-03-17-22:56:19,154326,210926,57976,57367,0.058,-0.397,0.908,0,60,0,0.0,0,0,0.0,0,0.0,0,0,0,0,0,0,2,0,0,0.0,0.0,0,2025-03-17-22:56:19,1742244979177
76,2025-03-17-22:56:19,151658,209660,58020,57454,0.102,-0.313,0.939,0,60,0,0.0,0,0,0.0,0,0.0,0,0,0,0,0,0,2,0,0,0.0,0.0,0,2025-03-17-22:56:19,1742244979211
77,2025-03-17-22:56:19,150734,209442,58021,57460,0.075,-0.419,0.915,0,60,0,0.0,0,0,0.0,0,0.0,0,0,0,0,0,0,2,0,0,0.0,0.0,0,2025-03-17-22:56:19,1742244979244
78,2025-03-17-22:56:19,151150,210025,58075,57475,0.069,-0.381,0.924,0,60,0,0.0,0,0,0.0,0,0.0,0,0,0,0,0,0,3,0,0,0.0,0.0,0,2025-03-17-22:56:19,1742244979310
79,2025-03-17-22:56:19,152058,210629,58037,57376,0.082,-0.378,0.922,0,60,0,0.0,0,0,0.0,0,0.0,0,0,0,0,0,0,3,0,0,0.0,0.0,0,2025-03-17-22:56:19,1742244979344
80,2025-03-17-22:56:19,153772,211353,57920,57214,0.073,-0.393,0.921,0,60,0,0.0,0,0,0.0,0,0.0,0,0,0,0,0,0,3,0,0,0.0,0.0,0,2025-03-17-22:56:19,1742244979394
81,2025-03-17-22:56:19,155796,212173,57837,57104,0.059,-0.429,0.911,0,60,0,0.0,0,0,0.0,0,0.0,0,0,0,0,0,0,3,0,0,0.0,0.0,0,2025-03-17-22:56:19,1742244979410
82,2025-03-17-22:56:19,156844,212911,57745,57011,0.051,-0.454,0.899,0,60,0,0.0,0,0,0.0,0,0.0,0,0,0,0,0,0,3,0,0,0.0,0.0,0,2025-03-17-22:56:19,1742244979444
83,2025-03-17-22:56:19,156797,213349,57781,57044,0.055,-0.405,0.914,0,60,0,0.0,0,0,0.0,0,0.0,0,0,0,0,0,0,3,0,0,0.0,0.0,0,2025-03-17-22:56:19,1742244979510
84,2025-03-17-22:56:19,156097,213509,57884,57106,0.092,-0.355,0.932,0,60,0,0.0,0,0,0.0,0,0.0,0,0,0,0,0,0,3,0,0,0.0,0.0,0,2025-03-17-22:56:19,1742244979544
85,2025-03-17-22:56:19,155780,213496,57927,57142,0.073,-0.411,0.9,0,60,0,0.0,0,0,0.0,0,0.0,0,0,0,0,0,0,3,0,0,0.0,0.0,0,2025-03-17-22:56:19,1742244979577
86,2025-03-17-22:56:19,156344,213651,57943,57118,0.065,-0.366,0.927,0,60,0,0.0,0,0,0.0,0,0.0,0,0,0,0,0,0,3,0,0,0.0,0.0,0,2025-03-17-22:56:19,1742244979627
87,2025-03-17-22:56:19,157039,213872,57883,57042,0.067,-0.398,0.917,0,60,0,0.0,0,0,0.0,0,0.0,0,0,0,0,0,0,3,0,0,0.0,0.0,0,2025-03-17-22:56:19,1742244979660
88,2025-03-17-22:56:19,158235,214246,57759,56873,0.064,-0.398,0.913,0,60,0,0.0,0,0,0.0,0,0.0,0,0,0,0,0,0,3,0,0,0.0,0.0,0,2025-03-17-22:56:19,1742244979710
89,2025-03-17-22:56:19,159555,214645,57674,56754,0.062,-0.411,0.909,0,59,0,0.0,0,0,0.0,0,0.0,0,0,0,0,0,0,3,0,0,0.0,0.0,0,2025-03-17-22:56:19,1742244979743
90,2025-03-17-22:56:19,161079,215019,57701,56761,0.065,-0.407,0.915,0,59,0,0.0,0,0,0.0,0,0.0,0,0,0,0,0,0,3,0,0,0.0,0.0,0,2025-03-17-22:56:19,1742244979793
91,2025-03-17-22:56:19,163006,215398,57812,56865,0.071,-0.391,0.915,0,59,0,0.0,0,0,0.0,0,0.0,0,0,0,0,0,0,3,0,0,0.0,0.0,0,2025-03-17-22:56:19,1742244979810
92,2025-03-17-22:56:19,165176,215707,57945,57013,0.065,-0.396,0.915,0,59,0,761.9,25,0,0.0,0,0.0,0,0,0,0,0,0,3,0,0,0.0,0.0,18,2025-03-17-22:56:19,1742244979860
93,2025-03-17-22:56:20,167039,215896,58085,57182,0.072,-0.394,0.914,0,59,0,0.0,0,0,0.0,0,0.0,0,0,0,0,0,0,3,0,0,0.0,0.0,0,2025-03-17-22:56:20,1742244980110
94,2025-03-17-22:56:20,167306,215620,58103,57262,0.075,-0.413,0.91,0,59,0,0.0,0,0,0.0,0,0.0,0,0,0,0,0,0,3,0,0,0.0,0.0,0,2025-03-17-22:56:20,1742244980160
95,2025-03-17-22:56:20,166878,214765,58077,57283,0.077,-0.396,0.912,0,59,0,0.0,0,0,0.0,0,0.0,0,0,0,0,0,0,3,0,0,0.0,0.0,0,2025-03-17-22:56:20,1742244980193
96,2025-03-17-22:56:20,166750,214052,58071,57300,0.069,-0.397,0.91,0,59,0,0.0,0,0,0.0,0,0.0,0,0,0,0,0,1,3,0,0,0.0,0.0,0,2025-03-17-22:56:20,1742244980227
97,2025-03-17-22:56:20,167179,214099,58075,57321,0.068,-0.398,0.912,0,59,0,0.0,0,0,0.0,0,0.0,0,0,0,0,0,1,3,0,0,0.0,0.0,0,2025-03-17-22:56:20,1742244980260
98,2025-03-17-22:56:20,168023,214578,58101,57357,0.063,-0.411,0.91,0,59,0,0.0,0,0,0.0,0,0.0,0,0,0,0,0,1,3,0,0,0.0,0.0,0,2025-03-17-22:56:20,1742244980310
99,2025-03-17-22:56:20,169161,215130,58122,57375,0.069,-0.396,0.915,0,59,0,0.0,0,0,0.0,0,0.0,0,0,0,0,0,1,3,0,0,0.0,0.0,0,2025-03-17-22:56:20,1742244980326
100,2025-03-17-22:56:20,170383,215607,58146,57382,0.07,-0.401,0.91,0,59,0,0.0,0,0,0.0,0,0.0,0,0,0,0,0,1,3,0,0,0.0,0.0,0,2025-03-17-22:56:20,1742244980360
101,2025-03-17-22:56:20,171585,215957,58163,57375,0.065,-0.398,0.914,0,59,0,0.0,0,0,0.0,0,0.0,0,0,0,0,0,1,3,0,0,0.0,0.0,0,2025-03-17-22:56:20,1742244980410
102,2025-03-17-22:56:20,172554,216177,58169,57369,0.067,-0.392,0.917,0,59,0,0.0,0,0,0.0,0,0.0,0,0,0,0,0,1,3,0,0,0.0,0.0,0,2025-03-17-22:56:20,1742244980443
103,2025-03-17-22:56:20,173576,216344,58182,57382,0.064,-0.402,0.915,0,59,0,0.0,0,0,0.0,0,0.0,0,0,0,0,0,1,3,0,0,0.0,0.0,0,2025-03-17-22:56:20,1742244980527
104,2025-03-17-22:56:20,174659,216524,58174,57345,0.07,-0.395,0.911,0,59,0,0.0,0,0,0.0,0,0.0,0,0,0,0,0,1,3,0,0,0.0,0.0,0,2025-03-17-22:56:20,1742244980560
105,2025-03-17-22:56:20,175735,216758,58165,57323,0.069,-0.392,0.92,0,59,0,0.0,0,0,0.0,0,0.0,0,0,0,0,0,1,3,0,0,0.0,0.0,0,2025-03-17-22:56:20,1742244980593
106,2025-03-17-22:56:20,176821,217000,58188,57351,0.067,-0.403,0.916,0,59,0,0.0,0,0,0.0,0,0.0,0,0,0,0,0,1,3,0,0,0.0,0.0,0,2025-03-17-22:56:20,1742244980627
107,2025-03-17-22:56:20,177789,217228,58215,57375,0.072,-0.396,0.939,0,59,0,0.0,0,0,0.0,0,0.0,0,0,0,0,0,1,3,0,0,0.0,0.0,0,2025-03-17-22:56:20,1742244980660
108,2025-03-17-22:56:20,178280,217588,58053,57206,0.045,-0.444,0.875,0,59,0,0.0,0,0,0.0,0,0.0,0,0,0,0,0,1,3,0,0,0.0,0.0,0,2025-03-17-22:56:20,1742244980693
109,2025-03-17-22:56:20,179029,217989,57875,57010,0.072,-0.396,0.892,0,59,0,0.0,0,0,0.0,0,0.0,0,0,0,0,0,1,3,0,0,0.0,0.0,0,2025-03-17-22:56:20,1742244980727
110,2025-03-17-22:56:20,179745,218296,57740,56849,0.081,-0.334,0.946,0,59,0,0.0,0,0,0.0,0,0.0,0,0,0,0,0,1,3,0,0,0.0,0.0,0,2025-03-17-22:56:20,1742244980760
111,2025-03-17-22:56:20,180338,218574,57709,56822,0.077,-0.429,0.904,0,59,0,761.4,50,0,0.0,0,0.0,0,0,0,0,0,1,3,0,0,0.0,0.0,19,2025-03-17-22:56:20,1742244980793
112,2025-03-17-22:56:20,180130,218513,57856,57018,0.061,-0.401,0.912,0,59,0,0.0,0,0,0.0,0,0.0,0,0,0,0,0,1,3,0,0,0.0,0.0,0,2025-03-17-22:56:20,1742244980832
113,2025-03-17-22:56:20,179034,217662,57928,57129,0.072,-0.397,0.917,0,59,0,0.0,0,0,0.0,0,0.0,0,0,0,0,0,1,3,0,0,0.1,0.0,0,2025-03-17-22:56:20,1742244980927
114,2025-03-17-22:56:20,178082,216555,57890,57087,0.071,-0.404,0.912,0,59,0,0.0,0,0,0.0,0,0.0,0,0,0,0,0,1,3,0,0,0.1,0.0,0,2025-03-17-22:56:20,1742244980960
115,2025-03-17-22:56:20,177653,216254,57831,56988,0.074,-0.394,0.916,0,59,0,0.0,0,0,0.0,0,0.0,0,0,0,0,0,1,3,0,0,0.1,0.0,0,2025-03-17-22:56:20,1742244980993
116,2025-03-17-22:56:20,177800,216741,57792,56905,0.066,-0.41,0.912,0,59,0,0.0,0,0,0.0,0,0.0,0,0,0,0,0,1,3,0,0,0.1,0.0,0,2025-03-17-22:56:21,1742244981027
117,2025-03-17-22:56:20,178411,217501,57770,56843,0.079,-0.393,0.918,0,59,0,0.0,0,0,0.0,0,0.0,0,0,0,0,0,1,3,0,0,0.1,0.0,0,2025-03-17-22:56:21,1742244981060
118,2025-03-17-22:56:20,179131,218218,57794,56861,0.07,-0.395,0.912,0,59,0,0.0,0,0,0.0,0,0.0,0,0,0,0,0,1,3,0,0,0.1,0.0,0,2025-03-17-22:56:21,1742244981093
119,2025-03-17-22:56:20,179670,218787,57859,56930,0.078,-0.38,0.924,0,59,0,0.0,0,0,0.0,0,0.0,0,0,0,0,0,1,3,0,0,0.1,0.0,0,2025-03-17-22:56:21,1742244981126
120,2025-03-17-22:56:20,179379,219153,57894,56983,0.076,-0.394,0.913,0,59,0,0.0,0,0,0.0,0,0.0,0,0,0,0,0,1,3,0,0,0.1,0.0,0,2025-03-17-22:56:21,1742244981176
121,2025-03-17-22:56:20,178629,219295,57878,56990,0.051,-0.445,0.899,0,59,0,0.0,0,0,0.0,0,0.0,0,0,0,0,0,1,3,0,0,0.1,0.0,0,2025-03-17-22:56:21,1742244981210
122,2025-03-17-22:56:20,178045,219535,57896,56995,0.067,-0.417,0.903,0,59,0,0.0,0,0,0.0,0,0.0,0,0,0,0,0,1,3,0,0,0.1,0.0,0,2025-03-17-22:56:21,1742244981243
123,2025-03-17-22:56:21,177435,219571,58019,57110,0.085,-0.38,0.911,0,59,0,0.0,0,0,0.0,0,0.0,0,0,0,0,0,1,3,0,0,0.1,0.0,0,2025-03-17-22:56:21,1742244981326
124,2025-03-17-22:56:21,177753,219726,57995,57028,0.071,-0.394,0.91,0,59,0,0.0,0,0,0.0,0,0.0,0,0,0,0,0,1,3,0,0,0.1,0.0,0,2025-03-17-22:56:21,1742244981360
125,2025-03-17-22:56:21,178537,220052,57953,56906,0.072,-0.388,0.921,0,59,0,0.0,0,0,0.0,0,0.0,0,0,0,0,0,1,3,0,0,0.1,0.0,0,2025-03-17-22:56:21,1742244981393
126,2025-03-17-22:56:21,179495,220395,57821,56739,0.08,-0.397,0.918,0,59,0,0.0,0,0,0.0,0,0.0,0,0,0,0,0,1,3,0,0,0.1,0.0,0,2025-03-17-22:56:21,1742244981427
127,2025-03-17-22:56:21,180314,220737,57614,56537,0.054,-0.415,0.91,0,59,0,0.0,0,0,0.0,0,0.0,0,0,0,0,0,1,3,0,0,0.1,0.0,0,2025-03-17-22:56:21,1742244981460
128,2025-03-17-22:56:21,180790,221200,57473,56437,0.034,-0.473,0.886,0,59,0,0.0,0,0,0.0,0,0.0,0,0,0,0,0,1,3,0,0,0.1,0.0,0,2025-03-17-22:56:21,1742244981493
129,2025-03-17-22:56:21,180583,221602,57642,56616,0.05,-0.491,0.878,0,59,0,0.0,0,0,0.0,0,0.0,0,0,0,0,0,1,3,0,0,0.1,0.0,0,2025-03-17-22:56:21,1742244981526
130,2025-03-17-22:56:21,179390,221401,58004,56986,0.084,-0.313,0.933,0,59,0,0.0,0,0,0.0,0,0.0,0,0,0,0,0,1,3,0,0,0.1,0.0,0,2025-03-17-22:56:21,1742244981560
131,2025-03-17-22:56:21,177685,220311,57981,57003,0.079,-0.394,0.912,0,59,0,0.0,0,0,0.0,0,0.0,0,0,0,0,0,1,3,0,0,0.1,0.0,0,2025-03-17-22:56:21,1742244981593
132,2025-03-17-22:56:21,176333,218970,57860,56907,0.071,-0.381,0.923,0,59,0,817.9,100,0,0.0,0,0.0,0,0,0,0,0,1,3,0,0,0.1,0.0,21,2025-03-17-22:56:21,1742244981643
133,2025-03-17-22:56:21,175731,217824,57683,56776,0.062,-0.404,0.916,0,59,0,0.0,0,0,0.0,0,0.0,0,0,0,0,0,1,3,0,0,0.1,0.0,0,2025-03-17-22:56:21,1742244981726
134,2025-03-17-22:56:21,175977,217553,57582,56676,0.051,-0.426,0.915,0,59,0,0.0,0,0,0.0,0,0.0,0,0,0,0,0,1,3,0,0,0.1,0.0,0,2025-03-17-22:56:21,1742244981760
135,2025-03-17-22:56:21,176567,217845,57646,56757,0.049,-0.44,0.908,0,59,0,0.0,0,0,0.0,0,0.0,0,0,0,0,0,1,3,0,0,0.1,0.0,0,2025-03-17-22:56:21,1742244981793
136,2025-03-17-22:56:21,177341,218659,57842,56951,0.065,-0.358,0.927,0,59,0,0.0,0,0,0.0,0,0.0,0,0,0,0,0,1,3,0,0,0.1,0.0,0,2025-03-17-22:56:21,1742244981826
137,2025-03-17-22:56:21,177463,219338,57987,57063,0.083,-0.39,0.925,0,59,0,0.0,0,0,0.0,0,0.0,0,0,0,0,0,1,3,0,0,0.1,0.0,0,2025-03-17-22:56:21,1742244981860
138,2025-03-17-22:56:21,176798,219533,58048,57093,0.074,-0.342,0.932,0,59,0,0.0,0,0,0.0,0,0.0,0,0,0,0,0,1,3,0,0,0.1,0.0,0,2025-03-17-22:56:21,1742244981910
139,2025-03-17-22:56:21,175951,219512,58052,57118,0.066,-0.408,0.921,0,61,0,0.0,0,0,0.0,0,0.0,0,0,0,0,0,1,3,0,0,0.1,0.0,0,2025-03-17-22:56:21,1742244981930
140,2025-03-17-22:56:21,175332,219642,58058,57130,0.055,-0.444,0.918,0,61,0,0.0,0,0,0.0,0,0.0,0,0,0,0,0,1,3,0,0,0.1,0.0,0,2025-03-17-22:56:21,1742244981976
141,2025-03-17-22:56:21,174666,219758,58133,57206,0.081,-0.362,0.914,0,61,0,0.0,0,0,0.0,0,0.0,0,0,0,0,0,1,3,0,0,0.1,0.0,0,2025-03-17-22:56:22,1742244982009
142,2025-03-17-22:56:21,174811,220035,58099,57211,0.067,-0.434,0.89,0,61,0,0.0,0,0,0.0,0,0.0,0,0,0,0,0,1,3,0,0,0.1,0.0,0,2025-03-17-22:56:22,1742244982043
143,2025-03-17-22:56:22,176365,220551,58138,57180,0.066,-0.377,0.919,0,61,0,0.0,0,0,0.0,0,0.0,0,0,0,0,0,1,3,0,0,0.1,0.0,0,2025-03-17-22:56:22,1742244982110
144,2025-03-17-22:56:22,177872,220954,58088,57076,0.086,-0.388,0.913,0,63,0,0.0,0,0,0.0,0,0.0,0,0,0,0,0,1,3,0,0,0.1,0.0,0,2025-03-17-22:56:22,1742244982160
145,2025-03-17-22:56:22,179407,221305,57963,56953,0.081,-0.365,0.928,0,63,0,0.0,0,0,0.0,0,0.0,0,0,0,0,0,1,3,0,0,0.1,0.0,0,2025-03-17-22:56:22,1742244982193
146,2025-03-17-22:56:22,180680,221657,57921,56975,0.045,-0.462,0.898,0,63,0,0.0,0,0,0.0,0,0.0,0,0,0,0,0,1,3,0,0,0.1,0.0,0,2025-03-17-22:56:22,1742244982226
147,2025-03-17-22:56:22,180939,222059,57797,56877,0.031,-0.487,0.873,0,63,0,0.0,0,0,0.0,0,0.0,0,0,0,0,0,1,3,0,0,0.1,0.0,0,2025-03-17-22:56:22,1742244982259
148,2025-03-17-22:56:22,180243,222347,58078,57153,0.086,-0.368,0.943,0,63,0,0.0,0,0,0.0,0,0.0,0,0,0,0,0,1,3,0,0,0.1,0.0,0,2025-03-17-22:56:22,1742244982309
149,2025-03-17-22:56:22,178591,221718,58395,57531,0.072,-0.406,0.901,0,64,0,0.0,0,0,0.0,0,0.0,0,0,0,0,0,1,3,0,0,0.1,0.0,0,2025-03-17-22:56:22,1742244982326
150,2025-03-17-22:56:22,177172,220469,58276,57424,0.067,-0.404,0.911,0,64,0,770.0,100,0,0.0,0,0.0,0,0,0,0,0,1,3,0,0,0.1,0.0,18,2025-03-17-22:56:22,1742244982359
151,2025-03-17-22:56:22,176206,219271,58110,57240,0.076,-0.384,0.918,0,64,0,0.0,0,0,0.0,0,0.0,0,0,0,0,0,1,3,0,0,0.1,0.0,0,2025-03-17-22:56:22,1742244982409
152,2025-03-17-22:56:22,176142,218734,57826,56933,0.061,-0.405,0.92,0,64,0,0.0,0,0,0.0,0,0.0,0,0,0,0,0,1,3,0,0,0.1,0.0,0,2025-03-17-22:56:22,1742244982443
153,2025-03-17-22:56:22,176298,218632,57647,56760,0.05,-0.427,0.914,0,64,0,0.0,0,0,0.0,0,0.0,0,0,0,0,0,1,3,0,0,0.1,0.0,0,2025-03-17-22:56:22,1742244982526
154,2025-03-17-22:56:22,176117,218952,57508,56633,0.04,-0.452,0.893,0,66,0,0.0,0,0,0.0,0,0.0,0,0,0,0,0,1,3,0,0,0.1,0.0,0,2025-03-17-22:56:22,1742244982559
155,2025-03-17-22:56:22,175512,219791,57696,56835,0.039,-0.441,0.899,0,66,0,0.0,0,0,0.0,0,0.0,0,0,0,0,0,1,3,0,0,0.1,0.0,0,2025-03-17-22:56:22,1742244982593
156,2025-03-17-22:56:22,174725,220413,58116,57255,0.108,-0.243,0.927,0,66,0,0.0,0,0,0.0,0,0.0,0,0,0,0,0,1,3,0,0,0.1,0.0,0,2025-03-17-22:56:22,1742244982626
157,2025-03-17-22:56:22,175062,220786,58157,57283,0.066,-0.423,0.906,0,66,0,0.0,0,0,0.0,0,0.0,0,0,0,0,0,1,3,0,0,0.1,0.0,0,2025-03-17-22:56:22,1742244982676
158,2025-03-17-22:56:22,176121,221199,58130,57212,0.073,-0.328,0.94,0,66,0,0.0,0,0,0.0,0,0.0,0,0,0,0,0,1,3,0,0,0.1,0.0,0,2025-03-17-22:56:22,1742244982709
159,2025-03-17-22:56:22,176918,221451,57976,57028,0.055,-0.412,0.918,0,67,0,0.0,0,0,0.0,0,0.0,0,0,0,0,0,1,3,0,0,0.1,0.0,0,2025-03-17-22:56:22,1742244982742
160,2025-03-17-22:56:22,177863,221621,57844,56899,0.052,-0.411,0.913,0,67,0,0.0,0,0,0.0,0,0.0,0,0,0,0,0,1,3,0,0,0.1,0.0,0,2025-03-17-22:56:22,1742244982776
161,2025-03-17-22:56:22,178487,221728,57836,56923,0.049,-0.459,0.91,0,67,0,0.0,0,0,0.0,0,0.0,0,0,0,0,0,1,3,0,0,0.1,0.0,0,2025-03-17-22:56:22,1742244982809
162,2025-03-17-22:56:22,178189,222066,57831,56931,0.048,-0.406,0.901,0,67,0,0.0,0,0,0.0,0,0.0,0,0,0,0,0,1,3,0,0,0.1,0.0,0,2025-03-17-22:56:22,1742244982843
163,2025-03-17-22:56:22,177477,222361,58002,57102,0.062,-0.386,0.915,0,67,0,0.0,0,0,0.0,0,0.0,0,0,0,0,0,1,3,0,0,0.1,0.0,0,2025-03-17-22:56:22,1742244982926
164,2025-03-17-22:56:22,176943,222416,58208,57321,0.083,-0.346,0.922,0,68,0,0.0,0,0,0.0,0,0.0,0,0,0,0,0,1,3,0,0,0.1,0.0,0,2025-03-17-22:56:22,1742244982959
165,2025-03-17-22:56:22,177490,222572,58204,57281,0.065,-0.405,0.919,0,68,0,0.0,0,0,0.0,0,0.0,0,0,0,0,0,1,3,0,0,0.1,0.0,0,2025-03-17-22:56:22,1742244982993
166,2025-03-17-22:56:22,178283,222822,58127,57158,0.063,-0.383,0.921,0,68,0,0.0,0,0,0.0,0,0.0,0,0,0,0,0,1,3,0,0,0.1,0.0,0,2025-03-17-22:56:23,1742244983027
167,2025-03-17-22:56:22,179403,223025,57974,56987,0.059,-0.396,0.917,0,68,0,0.0,0,0,0.0,0,0.0,0,0,0,0,0,1,3,0,0,0.1,0.0,0,2025-03-17-22:56:23,1742244983059
168,2025-03-17-22:56:22,180563,223252,57841,56856,0.046,-0.424,0.915,0,68,0,0.0,0,0,0.0,0,0.0,0,0,0,0,0,1,3,0,0,0.1,0.0,0,2025-03-17-22:56:23,1742244983093
169,2025-03-17-22:56:22,180143,222906,57775,56847,0.034,-0.443,0.914,0,69,0,721.9,100,0,0.0,0,0.0,0,0,0,0,0,1,3,0,0,0.1,0.0,19,2025-03-17-22:56:23,1742244983126
170,2025-03-17-22:56:22,177341,220951,57690,56837,0.033,-0.451,0.893,0,69,0,0.0,0,0,0.0,0,0.0,0,0,0,0,0,1,3,0,0,0.1,0.0,0,2025-03-17-22:56:23,1742244983176
171,2025-03-17-22:56:22,174096,219159,57815,56994,0.052,-0.385,0.91,0,69,0,0.0,0,0,0.0,0,0.0,0,0,0,0,0,1,3,0,0,0.1,0.0,0,2025-03-17-22:56:23,1742244983209
172,2025-03-17-22:56:22,171629,218713,58044,57227,0.1,-0.303,0.929,0,69,0,0.0,0,0,0.0,0,0.0,0,0,0,0,0,1,3,0,0,0.1,0.0,0,2025-03-17-22:56:23,1742244983242
173,2025-03-17-22:56:23,170673,218663,58011,57165,0.053,-0.424,0.913,0,69,0,0.0,0,0,0.0,0,0.0,0,0,0,0,0,1,3,0,0,0.1,0.0,0,2025-03-17-22:56:23,1742244983326
174,2025-03-17-22:56:23,170304,218789,57971,57099,0.068,-0.373,0.925,0,69,0,0.0,0,0,0.0,0,0.0,0,0,0,0,0,1,3,0,0,0.1,0.0,0,2025-03-17-22:56:23,1742244983359
175,2025-03-17-22:56:23,170563,218783,57824,56944,0.056,-0.408,0.917,0,69,0,0.0,0,0,0.0,0,0.0,0,0,0,0,0,1,3,0,0,0.1,0.0,0,2025-03-17-22:56:23,1742244983393
176,2025-03-17-22:56:23,171533,218855,57675,56791,0.045,-0.425,0.911,0,69,0,0.0,0,0,0.0,0,0.0,0,0,0,0,0,1,3,0,0,0.1,0.0,0,2025-03-17-22:56:23,1742244983426
177,2025-03-17-22:56:23,172109,218807,57669,56828,0.038,-0.438,0.902,0,69,0,0.0,0,0,0.0,0,0.0,0,0,0,0,0,1,3,0,0,0.1,0.0,0,2025-03-17-22:56:23,1742244983460
178,2025-03-17-22:56:23,171595,219131,57582,56754,0.048,-0.423,0.91,0,69,0,0.0,0,0,0.0,0,0.0,0,0,0,0,0,1,3,0,0,0.1,0.0,0,2025-03-17-22:56:23,1742244983493
179,2025-03-17-22:56:23,170403,219456,57765,56951,0.039,-0.4,0.906,0,70,0,0.0,0,0,0.0,0,0.0,0,0,0,0,0,1,3,0,0,0.1,0.0,0,2025-03-17-22:56:23,1742244983526
180,2025-03-17-22:56:23,169493,220103,58051,57213,0.095,-0.335,0.934,0,70,0,0.0,0,0,0.0,0,0.0,0,0,0,0,0,1,3,0,0,0.1,0.0,0,2025-03-17-22:56:23,1742244983576
181,2025-03-17-22:56:23,169398,220407,58204,57335,0.086,-0.392,0.907,0,70,0,0.0,0,0,0.0,0,0.0,0,0,0,0,0,1,3,0,0,0.1,0.0,0,2025-03-17-22:56:23,1742244983609
182,2025-03-17-22:56:23,170035,220797,58106,57219,0.049,-0.396,0.916,0,70,0,0.0,0,0,0.0,0,0.0,0,0,0,0,0,1,3,0,0,0.1,0.0,0,2025-03-17-22:56:23,1742244983643
183,2025-03-17-22:56:23,171117,221144,57926,57040,0.053,-0.407,0.921,0,70,0,0.0,0,0,0.0,0,0.0,0,0,0,0,0,1,3,0,0,0.1,0.0,0,2025-03-17-22:56:23,1742244983726
184,2025-03-17-22:56:23,172354,221385,57799,56908,0.048,-0.437,0.917,0,71,0,0.0,0,0,0.0,0,0.0,0,0,0,0,0,1,3,0,0,0.1,0.0,0,2025-03-17-22:56:23,1742244983759
185,2025-03-17-22:56:23,173103,221575,57735,56871,0.036,-0.454,0.903,0,71,0,0.0,0,0,0.0,0,0.0,0,0,0,0,0,1,3,0,0,0.1,0.0,0,2025-03-17-22:56:23,1742244983792
186,2025-03-17-22:56:23,173154,222120,57745,56869,0.045,-0.399,0.909,0,71,0,0.0,0,0,0.0,0,0.0,0,0,0,0,0,1,3,0,0,0.1,0.0,0,2025-03-17-22:56:23,1742244983826
187,2025-03-17-22:56:23,173249,222658,58021,57145,0.06,-0.387,0.919,0,81,50,736.0,100,0,0.0,0,0.0,0,0,0,0,0,1,3,0,0,0.1,0.0,18,2025-03-17-22:56:23,1742244983859
188,2025-03-17-22:56:23,173441,222857,58311,57421,0.097,-0.302,0.928,0,81,50,0.0,0,0,0.0,0,0.0,0,0,0,0,0,1,3,0,0,0.1,0.0,0,2025-03-17-22:56:23,1742244983909
189,2025-03-17-22:56:23,173318,222563,58280,57375,0.072,-0.385,0.927,0,81,50,0.0,0,0,0.0,0,0.0,0,0,0,0,0,1,3,0,0,0.1,0.0,0,2025-03-17-22:56:23,1742244983944
190,2025-03-17-22:56:23,171916,221040,58046,57178,0.054,-0.393,0.913,0,81,50,0.0,0,0,0.0,0,0.0,0,0,0,0,0,1,3,0,0,0.1,0.0,0,2025-03-17-22:56:23,1742244983976
191,2025-03-17-22:56:23,170508,218655,57735,56890,0.051,-0.371,0.926,0,81,50,0.0,0,0,0.0,0,0.0,0,0,0,0,0,1,3,0,0,0.1,0.0,0,2025-03-17-22:56:24,1742244984009
192,2025-03-17-22:56:23,169525,217037,57517,56707,0.023,-0.467,0.899,0,81,50,0.0,0,0,0.0,0,0.0,0,0,0,0,0,1,3,0,0,0.1,0.0,0,2025-03-17-22:56:24,1742244984042
193,2025-03-17-22:56:24,168810,217185,57455,56636,0.038,-0.441,0.888,0,81,50,0.0,0,0,0.0,0,0.0,0,0,0,0,0,1,3,0,0,0.1,0.0,0,2025-03-17-22:56:24,1742244984126
194,2025-03-17-22:56:24,168278,218444,57749,56927,0.053,-0.412,0.91,0,81,50,0.0,0,0,0.0,0,0.0,0,0,0,0,0,1,3,0,0,0.1,0.0,0,2025-03-17-22:56:24,1742244984159
195,2025-03-17-22:56:24,168103,219447,58084,57239,0.113,-0.255,0.939,0,81,50,0.0,0,0,0.0,0,0.0,0,0,0,0,0,1,3,0,0,0.1,0.0,0,2025-03-17-22:56:24,1742244984192
196,2025-03-17-22:56:24,168528,219996,58040,57169,0.07,-0.371,0.926,0,81,50,0.0,0,0,0.0,0,0.0,0,0,0,0,0,1,3,0,0,0.1,0.0,0,2025-03-17-22:56:24,1742244984226
197,2025-03-17-22:56:24,169077,220432,57743,56815,0.052,-0.421,0.909,0,81,50,0.0,0,0,0.0,0,0.0,0,0,0,0,0,1,3,0,0,0.1,0.0,0,2025-03-17-22:56:24,1742244984259
198,2025-03-17-22:56:24,168777,220363,57338,56343,0.052,-0.378,0.927,0,81,50,0.0,0,0,0.0,0,0.0,0,0,0,0,0,1,3,0,0,0.1,0.0,0,2025-03-17-22:56:24,1742244984292
199,2025-03-17-22:56:24,167767,219463,57173,56193,0.028,-0.478,0.905,0,81,50,0.0,0,0,0.0,0,0.0,0,0,0,0,0,1,3,0,0,0.1,0.0,0,2025-03-17-22:56:24,1742244984325
200,2025-03-17-22:56:24,167525,219453,57358,56427,0.048,-0.474,0.896,0,81,50,0.0,0,0,0.0,0,0.0,0,0,0,0,0,1,3,0,0,0.1,0.0,0,2025-03-17-22:56:24,1742244984359
201,2025-03-17-22:56:24,167188,220352,57725,56842,0.052,-0.423,0.901,0,81,50,0.0,0,0,0.0,0,0.0,0,0,0,0,0,1,3,0,0,0.1,0.0,0,2025-03-17-22:56:24,1742244984409
202,2025-03-17-22:56:24,166618,220798,58078,57211,0.104,-0.254,0.948,0,81,50,0.0,0,0,0.0,0,0.0,0,0,0,0,0,1,3,0,0,0.1,0.0,0,2025-03-17-22:56:24,1742244984442
203,2025-03-17-22:56:24,166365,220984,58085,57236,0.069,-0.389,0.923,0,81,50,0.0,0,0,0.0,0,0.0,0,0,0,0,0,1,3,0,0,0.1,0.0,0,2025-03-17-22:56:24,1742244984525
204,2025-03-17-22:56:24,166871,221290,57896,57027,0.055,-0.408,0.908,0,81,50,0.0,0,0,0.0,0,0.0,0,0,0,0,0,1,3,0,0,0.1,0.0,0,2025-03-17-22:56:24,1742244984559
205,2025-03-17-22:56:24,168061,221609,57673,56753,0.063,-0.4,0.918,0,81,50,0.0,0,0,0.0,0,0.0,0,0,0,0,0,1,3,0,0,0.1,0.0,0,2025-03-17-22:56:24,1742244984592
206,2025-03-17-22:56:24,169035,221796,57567,56657,0.042,-0.457,0.915,0,81,50,0.0,0,0,0.0,0,0.0,0,0,0,0,0,1,3,0,0,0.1,0.0,0,2025-03-17-22:56:24,1742244984625
207,2025-03-17-22:56:24,170058,222232,57631,56737,0.04,-0.446,0.91,0,81,50,446.4,25,0,0.0,0,0.0,0,0,0,0,0,1,3,0,0,0.1,0.0,20,2025-03-17-22:56:24,1742244984659
208,2025-03-17-22:56:24,170291,222758,57884,57006,0.051,-0.424,0.904,0,81,50,0.0,0,0,0.0,0,0.0,0,0,0,0,0,1,3,0,0,0.1,0.0,0,2025-03-17-22:56:24,1742244984709
209,2025-03-17-22:56:24,168756,222215,58143,57331,0.105,-0.296,0.945,0,81,50,0.0,0,0,0.0,0,0.0,0,0,0,0,0,1,3,0,0,0.1,0.0,0,2025-03-17-22:56:24,1742244984742
210,2025-03-17-22:56:24,166546,220732,58157,57412,0.059,-0.402,0.903,0,81,50,0.0,0,0,0.0,0,0.0,0,0,0,0,0,1,3,0,0,0.1,0.0,0,2025-03-17-22:56:24,1742244984775
211,2025-03-17-22:56:24,165284,219703,57952,57205,0.066,-0.396,0.916,0,81,50,0.0,0,0,0.0,0,0.0,0,0,0,0,0,1,3,0,0,0.1,0.0,0,2025-03-17-22:56:24,1742244984808
212,2025-03-17-22:56:24,164258,219119,57615,56805,0.057,-0.407,0.915,0,80,50,0.0,0,0,0.0,0,0.0,0,0,0,0,0,1,3,0,0,0.1,0.0,0,2025-03-17-22:56:24,1742244984842
213,2025-03-17-22:56:24,163064,218445,57232,56335,0.049,-0.392,0.926,0,80,50,0.0,0,0,0.0,0,0.0,0,0,0,0,0,1,3,0,0,0.1,0.0,0,2025-03-17-22:56:24,1742244984875
214,2025-03-17-22:56:24,162387,218162,57103,56220,0.045,-0.47,0.9,0,80,50,0.0,0,0,0.0,0,0.0,0,0,0,0,0,1,3,0,0,0.1,0.0,0,2025-03-17-22:56:24,1742244984925
215,2025-03-17-22:56:24,162596,219063,57314,56474,0.06,-0.413,0.913,0,80,50,0.0,0,0,0.0,0,0.0,0,0,0,0,0,1,3,0,0,0.1,0.0,0,2025-03-17-22:56:24,1742244984959
216,2025-03-17-22:56:24,162454,219878,57604,56814,0.053,-0.428,0.912,0,80,50,0.0,0,0,0.0,0,0.0,0,0,0,0,0,1,3,0,0,0.2,0.0,0,2025-03-17-22:56:24,1742244984992
217,2025-03-17-22:56:24,162188,220431,57776,56996,0.056,-0.4,0.911,0,80,50,0.0,0,0,0.0,0,0.0,0,0,0,0,0,1,3,0,0,0.2,0.0,0,2025-03-17-22:56:25,1742244985025
218,2025-03-17-22:56:24,161550,220513,58000,57242,0.064,-0.388,0.907,0,80,50,0.0,0,0,0.0,0,0.0,0,0,0,0,0,1,3,0,0,0.2,0.0,0,2025-03-17-22:56:25,1742244985059
219,2025-03-17-22:56:24,161506,220623,57963,57169,0.061,-0.392,0.918,0,80,50,0.0,0,0,0.0,0,0.0,0,0,0,0,0,1,3,0,0,0.2,0.0,0,2025-03-17-22:56:25,1742244985092
220,2025-03-17-22:56:24,161451,220803,57839,56988,0.063,-0.397,0.909,0,80,50,0.0,0,0,0.0,0,0.0,0,0,0,0,0,1,3,0,0,0.2,0.0,0,2025-03-17-22:56:25,1742244985125
221,2025-03-17-22:56:24,161288,220891,57447,56536,0.068,-0.37,0.929,0,80,50,0.0,0,0,0.0,0,0.0,0,0,0,0,0,1,3,0,0,0.2,0.0,0,2025-03-17-22:56:25,1742244985159
222,2025-03-17-22:56:25,161437,220792,57137,56192,0.046,-0.455,0.907,0,80,50,0.0,0,0,0.0,0,0.0,0,0,0,0,0,1,3,0,0,0.2,0.0,0,2025-03-17-22:56:25,1742244985192
223,2025-03-17-22:56:25,162310,220899,57241,56379,0.036,-0.424,0.915,0,80,50,0.0,0,0,0.0,0,0.0,0,0,0,0,0,1,3,0,0,0.2,0.0,0,2025-03-17-22:56:25,1742244985225
224,2025-03-17-22:56:25,163139,221504,57407,56583,0.045,-0.426,0.89,0,80,50,0.0,0,0,0.0,0,0.0,0,0,0,0,0,1,3,0,0,0.2,0.0,0,2025-03-17-22:56:25,1742244985259
225,2025-03-17-22:56:25,163533,222107,57599,56755,0.05,-0.422,0.902,0,80,50,0.0,0,0,0.0,0,0.0,0,0,0,0,0,1,3,0,0,0.2,0.0,0,2025-03-17-22:56:25,1742244985309
226,2025-03-17-22:56:25,163485,222403,57862,57016,0.092,-0.336,0.93,0,80,50,819.8,25,0,0.0,0,0.0,0,0,0,0,0,1,3,0,0,0.2,0.0,19,2025-03-17-22:56:25,1742244985327
227,2025-03-17-22:56:25,163702,222407,57792,56968,0.051,-0.427,0.91,0,80,50,0.0,0,0,0.0,0,0.0,0,0,0,0,0,1,3,0,0,0.2,0.0,0,2025-03-17-22:56:25,1742244985375
228,2025-03-17-22:56:25,162505,221354,57623,56836,0.06,-0.397,0.913,0,80,50,0.0,0,0,0.0,0,0.0,0,0,0,0,0,1,3,0,0,0.2,0.0,0,2025-03-17-22:56:25,1742244985409
229,2025-03-17-22:56:25,160315,219045,57236,56471,0.058,-0.397,0.917,0,80,50,0.0,0,0,0.0,0,0.0,0,0,0,0,0,1,3,0,0,0.2,0.0,0,2025-03-17-22:56:25,1742244985442
230,2025-03-17-22:56:25,158797,217132,56861,56084,0.049,-0.407,0.911,0,80,50,0.0,0,0,0.0,0,0.0,0,0,0,0,0,1,3,0,0,0.2,0.0,0,2025-03-17-22:56:25,1742244985475
231,2025-03-17-22:56:25,158297,216125,56878,56138,0.041,-0.448,0.897,0,80,50,0.0,0,0,0.0,0,0.0,0,0,0,0,0,1,3,0,0,0.2,0.0,0,2025-03-17-22:56:25,1742244985509
232,2025-03-17-22:56:25,158640,216624,57032,56298,0.054,-0.418,0.913,0,80,50,0.0,0,0,0.0,0,0.0,0,0,0,0,0,1,3,0,0,0.2,0.0,0,2025-03-17-22:56:25,1742244985542
233,2025-03-17-22:56:25,158708,217565,57218,56496,0.049,-0.431,0.898,0,80,50,0.0,0,0,0.0,0,0.0,0,0,0,0,0,1,3,0,0,0.2,0.0,0,2025-03-17-22:56:25,1742244985575
234,2025-03-17-22:56:25,158875,218548,57350,56596,0.052,-0.399,0.908,0,80,50,0.0,0,0,0.0,0,0.0,0,0,0,0,0,1,3,0,0,0.2,0.0,0,2025-03-17-22:56:25,1742244985625
235,2025-03-17-22:56:25,159122,219244,57419,56628,0.086,-0.346,0.928,0,80,50,0.0,0,0,0.0,0,0.0,0,0,0,0,0,1,3,0,0,0.2,0.0,0,2025-03-17-22:56:25,1742244985659
236,2025-03-17-22:56:25,159629,219591,57315,56520,0.053,-0.385,0.919,0,80,50,0.0,0,0,0.0,0,0.0,0,0,0,0,0,1,3,0,0,0.2,0.0,0,2025-03-17-22:56:25,1742244985692
237,2025-03-17-22:56:25,160424,219866,57211,56426,0.043,-0.456,0.895,0,80,50,0.0,0,0,0.0,0,0.0,0,0,0,0,0,1,3,0,0,0.2,0.0,0,2025-03-17-22:56:25,1742244985725
238,2025-03-17-22:56:25,161323,220050,57227,56455,0.048,-0.435,0.908,0,80,50,0.0,0,0,0.0,0,0.0,0,0,0,0,0,1,3,0,0,0.2,0.0,0,2025-03-17-22:56:25,1742244985758
239,2025-03-17-22:56:25,162343,220270,57267,56486,0.057,-0.382,0.916,0,80,50,0.0,0,0,0.0,0,0.0,0,0,0,0,0,1,3,0,0,0.2,0.0,0,2025-03-17-22:56:25,1742244985792
240,2025-03-17-22:56:25,163799,220654,57348,56594,0.052,-0.41,0.909,0,80,50,0.0,0,0,0.0,0,0.0,0,0,0,0,0,1,3,0,0,0.2,0.0,0,2025-03-17-22:56:25,1742244985825
241,2025-03-17-22:56:25,165858,221215,57418,56683,0.058,-0.392,0.913,0,80,50,0.0,0,0,0.0,0,0.0,0,0,0,0,0,1,3,0,0,0.2,0.0,0,2025-03-17-22:56:25,1742244985875
242,2025-03-17-22:56:25,167715,221643,57493,56803,0.048,-0.451,0.889,0,80,50,0.0,0,0,0.0,0,0.0,0,0,0,0,0,1,3,0,0,0.2,0.0,0,2025-03-17-22:56:25,1742244985925
243,2025-03-17-22:56:25,169064,221846,57560,56897,0.049,-0.396,0.915,0,80,50,0.0,0,0,0.0,0,0.0,0,0,0,0,0,1,3,0,0,0.2,0.0,0,2025-03-17-22:56:25,1742244985958
244,2025-03-17-22:56:25,170354,221977,57610,56973,0.052,-0.402,0.907,0,80,50,0.0,0,0,0.0,0,0.0,0,0,0,0,0,1,3,0,0,0.2,0.0,0,2025-03-17-22:56:25,1742244985992
245,2025-03-17-22:56:25,171577,222036,57803,57245,0.041,-0.472,0.891,0,80,50,0.0,0,0,0.0,0,0.0,0,0,0,0,0,1,3,0,0,0.2,0.0,0,2025-03-17-22:56:26,1742244986025
246,2025-03-17-22:56:25,172284,221881,57869,57324,0.051,-0.411,0.908,0,80,50,0.0,0,0,0.0,0,0.0,0,0,0,0,0,1,3,0,0,0.2,0.0,0,2025-03-17-22:56:26,1742244986058
247,2025-03-17-22:56:26,171053,220238,57801,57300,0.049,-0.434,0.903,0,80,50,799.9,50,0,0.0,0,0.0,0,0,0,0,0,1,3,0,0,0.2,0.0,21,2025-03-17-22:56:26,1742244986125
248,2025-03-17-22:56:26,169503,217327,57707,57253,0.05,-0.407,0.905,0,80,50,0.0,0,0,0.0,0,0.0,0,0,0,0,0,1,3,0,0,0.2,0.0,0,2025-03-17-22:56:26,1742244986158
249,2025-03-17-22:56:26,168887,215379,57653,57229,0.051,-0.417,0.911,0,80,50,0.0,0,0,0.0,0,0.0,0,0,0,0,0,1,3,0,0,0.2,0.0,0,2025-03-17-22:56:26,1742244986192
250,2025-03-17-22:56:26,169151,214517,57656,57255,0.049,-0.421,0.906,0,80,50,0.0,0,0,0.0,0,0.0,0,0,0,0,0,1,3,0,0,0.2,0.0,0,2025-03-17-22:56:26,1742244986225
251,2025-03-17-22:56:26,169864,214254,57624,57214,0.053,-0.409,0.905,0,80,50,0.0,0,0,0.0,0,0.0,0,0,0,0,0,1,3,0,0,0.2,0.0,0,2025-03-17-22:56:26,1742244986258
252,2025-03-17-22:56:26,170761,214416,57580,57134,0.053,-0.406,0.911,0,80,50,0.0,0,0,0.0,0,0.0,0,0,0,0,0,1,3,0,0,0.2,0.0,0,2025-03-17-22:56:26,1742244986309
253,2025-03-17-22:56:26,171923,214871,57587,57114,0.049,-0.439,0.9,0,80,50,0.0,0,0,0.0,0,0.0,0,0,0,0,0,1,3,0,0,0.2,0.0,0,2025-03-17-22:56:26,1742244986342
254,2025-03-17-22:56:26,173304,215470,57582,57076,0.053,-0.399,0.91,0,80,50,0.0,0,0,0.0,0,0.0,0,0,0,0,0,1,3,0,0,0.2,0.0,0,2025-03-17-22:56:26,1742244986391
255,2025-03-17-22:56:26,174408,216009,57551,57014,0.052,-0.413,0.908,0,80,50,0.0,0,0,0.0,0,0.0,0,0,0,0,0,1,3,0,0,0.2,0.0,0,2025-03-17-22:56:26,1742244986425
0,2025-03-17-22:56:26,175134,216309,57580,57041,0.052,-0.431,0.904,0,80,50,0.0,0,0,0.0,0,0.0,0,0,0,0,0,1,3,0,0,0.2,0.0,0,2025-03-17-22:56:26,1742244986458
1,2025-03-17-22:56:26,175922,216486,57634,57101,0.053,-0.41,0.906,0,80,50,0.0,0,0,0.0,0,0.0,0,0,0,0,0,1,3,0,0,0.2,0.0,0,2025-03-17-22:56:26,1742244986508
2,2025-03-17-22:56:26,177047,216778,57677,57121,0.053,-0.419,0.907,0,80,50,0.0,0,0,0.0,0,0.0,0,0,0,0,0,1,3,0,0,0.2,0.0,0,2025-03-17-22:56:26,1742244986542
3,2025-03-17-22:56:26,178102,217191,57714,57139,0.05,-0.421,0.907,0,80,50,0.0,0,0,0.0,0,0.0,0,0,0,0,0,1,3,0,0,0.2,0.0,0,2025-03-17-22:56:26,1742244986575
4,2025-03-17-22:56:26,178827,217522,58094,57600,0.049,-0.418,0.909,0,80,50,0.0,0,0,0.0,0,0.0,0,0,0,0,0,1,3,0,0,0.2,0.0,0,2025-03-17-22:56:26,1742244986625
5,2025-03-17-22:56:26,179055,217694,58415,57979,0.057,-0.396,0.914,0,80,50,0.0,0,0,0.0,0,0.0,0,0,0,0,0,1,3,0,0,0.2,0.0,0,2025-03-17-22:56:26,1742244986658
6,2025-03-17-22:56:26,179239,217857,58634,58253,0.053,-0.407,0.906,0,80,50,0.0,0,0,0.0,0,0.0,0,0,0,0,0,1,3,0,0,0.2,0.0,0,2025-03-17-22:56:26,1742244986725
7,2025-03-17-22:56:26,179453,217981,58703,58339,0.051,-0.442,0.905,0,80,50,0.0,0,0,0.0,0,0.0,0,0,0,0,0,1,3,0,0,0.2,0.0,0,2025-03-17-22:56:26,1742244986758
8,2025-03-17-22:56:26,179712,218122,58647,58253,0.056,-0.422,0.912,0,80,50,0.0,0,0,0.0,0,0.0,0,0,0,0,0,1,3,0,0,0.2,0.0,0,2025-03-17-22:56:26,1742244986791
9,2025-03-17-22:56:26,180074,218340,58633,58210,0.053,-0.423,0.909,0,80,50,0.0,0,0,0.0,0,0.0,0,0,0,0,0,1,3,0,0,0.2,0.0,0,2025-03-17-22:56:26,1742244986825
10,2025-03-17-22:56:26,179325,217928,58647,58272,0.053,-0.41,0.907,0,80,50,0.0,0,0,0.0,0,0.0,0,0,0,0,0,1,3,0,0,0.2,0.0,0,2025-03-17-22:56:26,1742244986858
11,2025-03-17-22:56:26,177298,215742,58583,58291,0.046,-0.432,0.904,0,80,50,810.9,100,0,0.0,0,0.0,0,0,0,0,0,1,3,0,0,0.2,0.0,20,2025-03-17-22:56:26,1742244986925
12,2025-03-17-22:56:26,175420,213134,58519,58257,0.056,-0.405,0.91,0,80,50,0.0,0,0,0.0,0,0.0,0,0,0,0,0,1,3,0,0,0.2,0.0,0,2025-03-17-22:56:26,1742244986960
13,2025-03-17-22:56:26,174545,211766,58480,58235,0.052,-0.418,0.903,0,80,50,0.0,0,0,0.0,0,0.0,0,0,0,0,0,1,3,0,0,0.2,0.0,0,2025-03-17-22:56:26,1742244986991
14,2025-03-17-22:56:26,174391,211375,58443,58190,0.05,-0.432,0.902,0,80,50,0.0,0,0,0.0,0,0.0,0,0,0,0,0,1,3,0,0,0.2,0.0,0,2025-03-17-22:56:27,1742244987025
15,2025-03-17-22:56:26,174436,211407,58401,58124,0.053,-0.41,0.914,0,80,50,0.0,0,0,0.0,0,0.0,0,0,0,0,0,1,3,0,0,0.2,0.0,0,2025-03-17-22:56:27,1742244987058
16,2025-03-17-22:56:27,174651,211830,58305,57975,0.055,-0.405,0.909,0,80,50,0.0,0,0,0.0,0,0.0,0,0,0,0,0,1,3,0,0,0.2,0.0,0,2025-03-17-22:56:27,1742244987124
17,2025-03-17-22:56:27,175001,212592,58178,57797,0.046,-0.447,0.901,0,80,50,0.0,0,0,0.0,0,0.0,0,0,0,0,0,1,3,0,0,0.2,0.0,0,2025-03-17-22:56:27,1742244987158
18,2025-03-17-22:56:27,175296,213267,58063,57631,0.052,-0.403,0.907,0,80,50,0.0,0,0,0.0,0,0.0,0,0,0,0,0,1,3,0,0,0.2,0.0,0,2025-03-17-22:56:27,1742244987191
19,2025-03-17-22:56:27,175612,213835,57967,57505,0.052,-0.421,0.914,0,80,50,0.0,0,0,0.0,0,0.0,0,0,0,0,0,1,3,0,0,0.2,0.0,0,2025-03-17-22:56:27,1742244987225
20,2025-03-17-22:56:27,175771,214152,57955,57476,0.051,-0.412,0.905,0,80,50,0.0,0,0,0.0,0,0.0,0,0,0,0,0,1,3,0,0,0.2,0.0,0,2025-03-17-22:56:27,1742244987258
21,2025-03-17-22:56:27,175831,214293,57912,57431,0.046,-0.444,0.887,0,80,50,0.0,0,0,0.0,0,0.0,0,0,0,0,0,1,3,0,0,0.2,0.0,0,2025-03-17-22:56:27,1742244987308
22,2025-03-17-22:56:27,176081,214617,57732,57197,0.051,-0.411,0.911,0,80,50,0.0,0,0,0.0,0,0.0,0,0,0,0,0,1,3,0,0,0.2,0.0,0,2025-03-17-22:56:27,1742244987341
23,2025-03-17-22:56:27,176301,214960,57664,57113,0.054,-0.404,0.915,0,80,50,0.0,0,0,0.0,0,0.0,0,0,0,0,0,1,3,0,0,0.2,0.0,0,2025-03-17-22:56:27,1742244987391
24,2025-03-17-22:56:27,176786,215378,57707,57166,0.048,-0.435,0.897,0,80,50,0.0,0,0,0.0,0,0.0,0,0,0,0,0,1,3,0,0,0.2,0.0,0,2025-03-17-22:56:27,1742244987425
25,2025-03-17-22:56:27,177764,215997,57749,57186,0.052,-0.413,0.905,0,80,50,0.0,0,0,0.0,0,0.0,0,0,0,0,0,1,3,0,0,0.2,0.0,0,2025-03-17-22:56:27,1742244987458
26,2025-03-17-22:56:27,178429,216416,57881,57322,0.051,-0.421,0.908,0,80,50,0.0,0,0,0.0,0,0.0,0,0,0,0,0,1,3,0,0,0.2,0.0,0,2025-03-17-22:56:27,1742244987508
27,2025-03-17-22:56:27,178772,216678,58020,57475,0.051,-0.426,0.902,0,80,50,0.0,0,0,0.0,0,0.0,0,0,0,0,0,1,3,0,0,0.2,0.0,0,2025-03-17-22:56:27,1742244987558
28,2025-03-17-22:56:27,179031,216919,58184,57658,0.049,-0.417,0.907,0,80,50,0.0,0,0,0.0,0,0.0,0,0,0,0,0,1,3,0,0,0.2,0.0,0,2025-03-17-22:56:27,1742244987591
29,2025-03-17-22:56:27,179094,217055,58481,58006,0.056,-0.402,0.912,0,80,50,724.6,100,0,0.0,0,0.0,0,0,0,0,0,1,3,0,0,0.2,0.0,18,2025-03-17-22:56:27,1742244987624
30,2025-03-17-22:56:27,178926,217095,58659,58217,0.053,-0.415,0.906,0,80,50,0.0,0,0,0.0,0,0.0,0,0,0,0,0,1,3,0,0,0.2,0.0,0,2025-03-17-22:56:27,1742244987654
31,2025-03-17-22:56:27,177853,216539,58705,58300,0.054,-0.405,0.91,0,79,50,0.0,0,0,0.0,0,0.0,0,0,0,0,0,1,3,0,0,0.2,0.0,0,2025-03-17-22:56:27,1742244987710
32,2025-03-17-22:56:27,175227,213869,58609,58271,0.055,-0.41,0.907,0,79,50,0.0,0,0,0.0,0,0.0,0,0,0,0,0,1,3,0,0,0.2,0.0,0,2025-03-17-22:56:27,1742244987744
33,2025-03-17-22:56:27,172484,210555,58449,58151,0.053,-0.442,0.902,0,79,50,0.0,0,0,0.0,0,0.0,0,0,0,0,0,1,3,0,0,0.2,0.0,0,2025-03-17-22:56:27,1742244987778
34,2025-03-17-22:56:27,170531,208324,58327,58036,0.054,-0.41,0.907,0,79,50,0.0,0,0,0.0,0,0.0,0,0,0,0,0,1,3,0,0,0.2,0.0,0,2025-03-17-22:56:27,1742244987812
35,2025-03-17-22:56:27,169488,207365,58235,57935,0.052,-0.416,0.906,0,79,50,0.0,0,0,0.0,0,0.0,0,0,0,0,0,1,3,0,0,0.2,0.0,0,2025-03-17-22:56:27,1742244987845
36,2025-03-17-22:56:27,168948,206939,58209,57916,0.053,-0.414,0.905,0,78,50,0.0,0,0,0.0,0,0.0,0,0,0,0,0,1,3,0,0,0.2,0.0,0,2025-03-17-22:56:27,1742244987913
37,2025-03-17-22:56:27,168813,206886,58250,57970,0.054,-0.429,0.901,0,78,50,0.0,0,0,0.0,0,0.0,0,0,0,0,0,1,3,0,0,0.2,0.0,0,2025-03-17-22:56:27,1742244987959
38,2025-03-17-22:56:27,169144,207211,58310,58027,0.047,-0.432,0.903,0,78,50,0.0,0,0,0.0,0,0.0,0,0,0,0,0,1,3,0,0,0.2,0.0,0,2025-03-17-22:56:27,1742244987980
39,2025-03-17-22:56:27,169497,207616,58351,58064,0.052,-0.416,0.908,0,78,50,0.0,0,0,0.0,0,0.0,0,0,0,0,0,1,3,0,0,0.2,0.0,0,2025-03-17-22:56:28,1742244988014
40,2025-03-17-22:56:27,169765,207812,58390,58099,0.048,-0.43,0.904,0,78,50,0.0,0,0,0.0,0,0.0,0,0,0,0,0,1,3,0,0,0.2,0.0,0,2025-03-17-22:56:28,1742244988048
41,2025-03-17-22:56:28,169908,207813,58422,58138,0.052,-0.408,0.909,0,77,50,0.0,0,0,0.0,0,0.0,0,0,0,0,0,1,3,0,0,0.2,0.0,0,2025-03-17-22:56:28,1742244988104
42,2025-03-17-22:56:28,170209,207828,58471,58202,0.047,-0.441,0.9,0,77,50,0.0,0,0,0.0,0,0.0,0,0,0,0,0,1,3,0,0,0.2,0.0,0,2025-03-17-22:56:28,1742244988149
43,2025-03-17-22:56:28,170549,207839,58514,58237,0.05,-0.411,0.906,0,77,50,0.0,0,0,0.0,0,0.0,0,0,0,0,0,1,3,0,0,0.2,0.0,0,2025-03-17-22:56:28,1742244988183
44,2025-03-17-22:56:28,170967,207931,58561,58279,0.048,-0.429,0.903,0,77,50,0.0,0,0,0.0,0,0.0,0,0,0,0,0,1,3,0,0,0.2,0.0,0,2025-03-17-22:56:28,1742244988216
45,2025-03-17-22:56:28,171453,208194,58641,58361,0.047,-0.435,0.9,0,77,50,0.0,0,0,0.0,0,0.0,0,0,0,0,0,1,3,0,0,0.2,0.0,0,2025-03-17-22:56:28,1742244988250
46,2025-03-17-22:56:28,171752,208396,58768,58494,0.051,-0.408,0.909,0,76,50,0.0,0,0,0.0,0,0.0,0,0,0,0,0,1,3,0,0,0.2,0.0,0,2025-03-17-22:56:28,1742244988306
47,2025-03-17-22:56:28,171732,208444,58856,58579,0.051,-0.415,0.906,0,76,50,0.0,0,0,0.0,0,0.0,0,0,0,0,0,1,3,0,0,0.2,0.0,0,2025-03-17-22:56:28,1742244988340
48,2025-03-17-22:56:28,171784,208521,58892,58616,0.054,-0.426,0.898,0,76,50,749.6,100,0,0.0,0,0.0,0,0,0,0,0,1,3,0,0,0.2,0.0,19,2025-03-17-22:56:28,1742244988385
49,2025-03-17-22:56:28,171918,208598,58932,58659,0.05,-0.449,0.897,0,76,50,0.0,0,0,0.0,0,0.0,0,0,0,0,0,1,3,0,0,0.2,0.0,0,2025-03-17-22:56:28,1742244988419
50,2025-03-17-22:56:28,171972,208618,58967,58692,0.052,-0.424,0.902,0,76,50,0.0,0,0,0.0,0,0.0,0,0,0,0,0,1,3,0,0,0.2,0.0,0,2025-03-17-22:56:28,1742244988453
51,2025-03-17-22:56:28,171984,208623,58987,58704,0.052,-0.435,0.9,0,74,50,0.0,0,0,0.0,0,0.0,0,0,0,0,0,1,3,0,0,0.2,0.0,0,2025-03-17-22:56:28,1742244988509
52,2025-03-17-22:56:28,172001,208649,59009,58704,0.054,-0.418,0.905,0,74,50,0.0,0,0,0.0,0,0.0,0,0,0,0,0,1,3,0,0,0.2,0.0,0,2025-03-17-22:56:28,1742244988543
53,2025-03-17-22:56:28,171732,208388,58979,58674,0.053,-0.428,0.902,0,74,50,0.0,0,0,0.0,0,0.0,0,0,0,0,0,1,3,0,0,0.2,0.0,0,2025-03-17-22:56:28,1742244988576
54,2025-03-17-22:56:28,169984,206059,58856,58605,0.052,-0.435,0.895,0,74,50,0.0,0,0,0.0,0,0.0,0,0,0,0,0,1,3,0,0,0.2,0.0,0,2025-03-17-22:56:28,1742244988610
55,2025-03-17-22:56:28,167572,202535,58695,58489,0.054,-0.432,0.898,0,74,50,0.0,0,0,0.0,0,0.0,0,0,0,0,0,1,3,0,0,0.2,0.0,0,2025-03-17-22:56:28,1742244988655
56,2025-03-17-22:56:28,165563,199607,58554,58368,0.052,-0.433,0.902,0,74,50,0.0,0,0,0.0,0,0.0,0,0,0,0,0,1,3,0,0,0.2,0.0,0,2025-03-17-22:56:28,1742244988711
57,2025-03-17-22:56:28,164337,198019,58446,58247,0.052,-0.439,0.9,0,74,50,0.0,0,0,0.0,0,0.0,0,0,0,0,0,1,3,0,0,0.2,0.0,0,2025-03-17-22:56:28,1742244988745
58,2025-03-17-22:56:28,163583,197267,58370,58144,0.052,-0.435,0.901,0,74,50,0.0,0,0,0.0,0,0.0,0,0,0,0,0,1,3,0,0,0.2,0.0,0,2025-03-17-22:56:28,1742244988779
59,2025-03-17-22:56:28,163103,196945,58293,58053,0.052,-0.44,0.899,0,74,50,0.0,0,0,0.0,0,0.0,0,0,0,0,0,1,3,0,0,0.2,0.0,0,2025-03-17-22:56:28,1742244988813
60,2025-03-17-22:56:28,162938,197073,58260,57991,0.051,-0.445,0.901,0,74,50,0.0,0,0,0.0,0,0.0,0,0,0,0,0,1,3,0,0,0.2,0.0,0,2025-03-17-22:56:28,1742244988846
61,2025-03-17-22:56:28,162843,197442,58295,57998,0.055,-0.421,0.9,0,75,50,0.0,0,0,0.0,0,0.0,0,0,0,0,0,1,3,0,0,0.2,0.0,0,2025-03-17-22:56:28,1742244988914
62,2025-03-17-22:56:28,162635,197709,58335,58037,0.054,-0.421,0.9,0,75,50,0.0,0,0,0.0,0,0.0,0,0,0,0,0,1,3,0,0,0.2,0.0,0,2025-03-17-22:56:28,1742244988958
63,2025-03-17-22:56:28,162233,197756,58362,58063,0.055,-0.439,0.897,0,75,50,0.0,0,0,0.0,0,0.0,0,0,0,0,0,1,3,0,0,0.2,0.0,0,2025-03-17-22:56:28,1742244988981
64,2025-03-17-22:56:28,161935,197765,58378,58083,0.054,-0.436,0.899,0,75,50,0.0,0,0,0.0,0,0.0,0,0,0,0,0,1,3,0,0,0.3,0.0,0,2025-03-17-22:56:29,1742244989015
65,2025-03-17-22:56:28,162046,198080,58420,58134,0.057,-0.449,0.893,0,75,50,0.0,0,0,0.0,0,0.0,0,0,0,0,0,1,3,0,0,0.3,0.0,0,2025-03-17-22:56:29,1742244989049
66,2025-03-17-22:56:29,162523,198639,58500,58218,0.057,-0.409,0.9,0,75,50,0.0,0,0,0.0,0,0.0,0,0,0,0,0,1,3,0,0,0.3,0.0,0,2025-03-17-22:56:29,1742244989105
67,2025-03-17-22:56:29,163383,199410,58601,58343,0.048,-0.469,0.887,0,75,50,770.7,100,0,0.0,0,0.0,0,0,0,0,0,1,3,0,0,0.3,0.0,19,2025-03-17-22:56:29,1742244989150
68,2025-03-17-22:56:29,164148,199990,58665,58394,0.052,-0.436,0.898,0,75,50,0.0,0,0,0.0,0,0.0,0,0,0,0,0,1,3,0,0,0.3,0.0,0,2025-03-17-22:56:29,1742244989184
69,2025-03-17-22:56:29,164664,200395,58675,58379,0.051,-0.439,0.896,0,75,50,0.0,0,0,0.0,0,0.0,0,0,0,0,0,1,3,0,0,0.3,0.0,0,2025-03-17-22:56:29,1742244989217
70,2025-03-17-22:56:29,165069,200761,58665,58341,0.051,-0.433,0.9,0,75,50,0.0,0,0,0.0,0,0.0,0,0,0,0,0,1,3,0,0,0.3,0.0,0,2025-03-17-22:56:29,1742244989252
71,2025-03-17-22:56:29,165341,201138,58645,58292,0.05,-0.434,0.9,0,76,50,0.0,0,0,0.0,0,0.0,0,0,0,0,0,1,3,0,0,0.3,0.0,0,2025-03-17-22:56:29,1742244989307
72,2025-03-17-22:56:29,165625,201665,58627,58253,0.055,-0.424,0.902,0,76,50,0.0,0,0,0.0,0,0.0,0,0,0,0,0,1,3,0,0,0.3,0.0,0,2025-03-17-22:56:29,1742244989341
73,2025-03-17-22:56:29,166010,202288,58594,58211,0.057,-0.432,0.901,0,76,50,0.0,0,0,0.0,0,0.0,0,0,0,0,0,1,3,0,0,0.3,0.0,0,2025-03-17-22:56:29,1742244989386
74,2025-03-17-22:56:29,165337,201454,58538,58203,0.054,-0.444,0.896,0,76,50,0.0,0,0,0.0,0,0.0,0,0,0,0,0,1,3,0,0,0.3,0.0,0,2025-03-17-22:56:29,1742244989420
75,2025-03-17-22:56:29,163624,198818,58438,58161,0.052,-0.443,0.894,0,76,50,0.0,0,0,0.0,0,0.0,0,0,0,0,0,1,3,0,0,0.3,0.0,0,2025-03-17-22:56:29,1742244989454
76,2025-03-17-22:56:29,161898,196066,58335,58089,0.051,-0.441,0.893,0,76,50,0.0,0,0,0.0,0,0.0,0,0,0,0,0,1,3,0,0,0.3,0.0,0,2025-03-17-22:56:29,1742244989510
77,2025-03-17-22:56:29,160876,194661,58279,58024,0.052,-0.431,0.901,0,76,50,0.0,0,0,0.0,0,0.0,0,0,0,0,0,1,3,0,0,0.3,0.0,0,2025-03-17-22:56:29,1742244989544
78,2025-03-17-22:56:29,160302,194236,58268,57986,0.054,-0.412,0.904,0,76,50,0.0,0,0,0.0,0,0.0,0,0,0,0,0,1,3,0,0,0.3,0.0,0,2025-03-17-22:56:29,1742244989578
79,2025-03-17-22:56:29,160106,194397,58241,57940,0.057,-0.426,0.9,0,76,100,0.0,0,0,0.0,0,0.0,0,0,0,0,0,1,3,0,0,0.3,0.0,0,2025-03-17-22:56:29,1742244989612
80,2025-03-17-22:56:29,160403,195012,58185,57852,0.056,-0.464,0.891,0,76,100,0.0,0,0,0.0,0,0.0,0,0,0,0,0,1,3,0,0,0.3,0.0,0,2025-03-17-22:56:29,1742244989656
81,2025-03-17-22:56:29,160900,195791,58167,57821,0.053,-0.442,0.894,0,77,100,0.0,0,0,0.0,0,0.0,0,0,0,0,0,1,3,0,0,0.3,0.0,0,2025-03-17-22:56:29,1742244989712
82,2025-03-17-22:56:29,161220,196218,58239,57895,0.055,-0.452,0.889,0,77,100,0.0,0,0,0.0,0,0.0,0,0,0,0,0,1,3,0,0,0.3,0.0,0,2025-03-17-22:56:29,1742244989746
83,2025-03-17-22:56:29,161258,196084,58239,57900,0.053,-0.46,0.891,0,77,100,0.0,0,0,0.0,0,0.0,0,0,0,0,0,1,3,0,0,0.3,0.0,0,2025-03-17-22:56:29,1742244989780
84,2025-03-17-22:56:29,160979,195741,58176,57813,0.05,-0.418,0.903,0,77,100,0.0,0,0,0.0,0,0.0,0,0,0,0,0,1,3,0,0,0.3,0.0,0,2025-03-17-22:56:29,1742244989814
85,2025-03-17-22:56:29,160549,195560,58126,57735,0.055,-0.416,0.905,0,77,100,0.0,0,0,0.0,0,0.0,0,0,0,0,0,1,3,0,0,0.3,0.0,0,2025-03-17-22:56:29,1742244989848
86,2025-03-17-22:56:29,160300,195636,58050,57642,0.051,-0.444,0.897,0,78,100,0.0,0,0,0.0,0,0.0,0,0,0,0,0,1,3,0,0,0.3,0.0,0,2025-03-17-22:56:29,1742244989915
87,2025-03-17-22:56:29,160289,195764,57967,57536,0.053,-0.467,0.886,0,78,100,0.0,0,0,0.0,0,0.0,0,0,0,0,0,1,3,0,0,0.3,0.0,0,2025-03-17-22:56:29,1742244989959
88,2025-03-17-22:56:29,160438,196010,57904,57445,0.062,-0.421,0.895,0,78,100,0.0,0,0,0.0,0,0.0,0,0,0,0,0,1,3,0,0,0.3,0.0,0,2025-03-17-22:56:29,1742244989982
89,2025-03-17-22:56:29,160936,196447,57888,57424,0.051,-0.45,0.887,0,78,100,857.3,100,0,0.0,0,0.0,0,0,0,0,0,1,3,0,0,0.3,0.0,22,2025-03-17-22:56:30,1742244990016
90,2025-03-17-22:56:29,161714,197204,57982,57523,0.052,-0.452,0.895,0,78,100,0.0,0,0,0.0,0,0.0,0,0,0,0,0,1,3,0,0,0.3,0.0,0,2025-03-17-22:56:30,1742244990050
91,2025-03-17-22:56:30,162565,198231,58054,57573,0.056,-0.412,0.902,0,79,100,0.0,0,0,0.0,0,0.0,0,0,0,0,0,1,3,0,0,0.3,0.0,0,2025-03-17-22:56:30,1742244990106
92,2025-03-17-22:56:30,163483,199339,58120,57625,0.062,-0.426,0.9,0,79,100,0.0,0,0,0.0,0,0.0,0,0,0,0,0,1,3,0,0,0.3,0.0,0,2025-03-17-22:56:30,1742244990151
93,2025-03-17-22:56:30,163376,199399,58171,57713,0.059,-0.424,0.901,0,79,100,0.0,0,0,0.0,0,0.0,0,0,0,0,0,1,3,0,0,0.3,0.0,0,2025-03-17-22:56:30,1742244990185
94,2025-03-17-22:56:30,161632,197047,58111,57735,0.052,-0.439,0.9,0,79,100,0.0,0,0,0.0,0,0.0,0,0,0,0,0,1,3,0,0,0.3,0.0,0,2025-03-17-22:56:30,1742244990219
95,2025-03-17-22:56:30,159780,194032,58009,57694,0.047,-0.461,0.89,0,79,100,0.0,0,0,0.0,0,0.0,0,0,0,0,0,1,3,0,0,0.3,0.0,0,2025-03-17-22:56:30,1742244990252
96,2025-03-17-22:56:30,158730,192396,57986,57696,0.045,-0.425,0.903,0,80,100,0.0,0,0,0.0,0,0.0,0,0,0,0,0,1,3,0,0,0.3,0.0,0,2025-03-17-22:56:30,1742244990308
97,2025-03-17-22:56:30,158425,192098,57870,57516,0.052,-0.416,0.908,0,80,100,0.0,0,0,0.0,0,0.0,0,0,0,0,0,1,3,0,0,0.3,0.0,0,2025-03-17-22:56:30,1742244990342
98,2025-03-17-22:56:30,158727,192608,57710,57275,0.055,-0.403,0.909,0,80,100,0.0,0,0,0.0,0,0.0,0,0,0,0,0,1,3,0,0,0.3,0.0,0,2025-03-17-22:56:30,1742244990387
99,2025-03-17-22:56:30,159421,193447,57612,57129,0.049,-0.423,0.902,0,80,100,0.0,0,0,0.0,0,0.0,0,0,0,0,0,1,3,0,0,0.3,0.0,0,2025-03-17-22:56:30,1742244990421
100,2025-03-17-22:56:30,160447,194509,57632,57139,0.05,-0.434,0.899,0,80,100,0.0,0,0,0.0,0,0.0,0,0,0,0,0,1,3,0,0,0.3,0.0,0,2025-03-17-22:56:30,1742244990455
101,2025-03-17-22:56:30,161399,195446,57710,57220,0.048,-0.423,0.907,0,82,100,0.0,0,0,0.0,0,0.0,0,0,0,0,0,1,3,0,0,0.3,0.0,0,2025-03-17-22:56:30,1742244990511
102,2025-03-17-22:56:30,162076,196106,57774,57290,0.054,-0.409,0.906,0,82,100,0.0,0,0,0.0,0,0.0,0,0,0,0,0,1,3,0,0,0.3,0.0,0,2025-03-17-22:56:30,1742244990545
103,2025-03-17-22:56:30,162662,196593,57793,57310,0.049,-0.421,0.9,0,82,100,0.0,0,0,0.0,0,0.0,0,0,0,0,0,1,3,0,0,0.3,0.0,0,2025-03-17-22:56:30,1742244990578
104,2025-03-17-22:56:30,163304,197103,57845,57374,0.045,-0.451,0.9,0,82,100,0.0,0,0,0.0,0,0.0,0,0,0,0,0,1,3,0,0,0.3,0.0,0,2025-03-17-22:56:30,1742244990612
105,2025-03-17-22:56:30,163899,197572,57927,57460,0.054,-0.398,0.911,0,82,100,0.0,0,0,0.0,0,0.0,0,0,0,0,0,1,3,0,0,0.3,0.0,0,2025-03-17-22:56:30,1742244990657
106,2025-03-17-22:56:30,164615,198205,57975,57510,0.05,-0.425,0.905,0,82,100,0.0,0,0,0.0,0,0.0,0,0,0,0,0,1,3,0,0,0.3,0.0,0,2025-03-17-22:56:30,1742244990714
107,2025-03-17-22:56:30,165518,199023,58002,57529,0.049,-0.417,0.906,0,82,100,0.0,0,0,0.0,0,0.0,0,0,0,0,0,1,3,0,0,0.3,0.0,0,2025-03-17-22:56:30,1742244990747
108,2025-03-17-22:56:30,166465,199909,58014,57530,0.049,-0.417,0.904,0,82,100,0.0,0,0,0.0,0,0.0,0,0,0,0,0,1,3,0,0,0.3,0.0,0,2025-03-17-22:56:30,1742244990781
109,2025-03-17-22:56:30,167428,200813,58045,57544,0.05,-0.415,0.906,0,82,100,0.0,0,0,0.0,0,0.0,0,0,0,0,0,1,3,0,0,0.3,0.0,0,2025-03-17-22:56:30,1742244990815
110,2025-03-17-22:56:30,168452,201676,58079,57576,0.049,-0.423,0.905,0,82,100,0.0,0,0,0.0,0,0.0,0,0,0,0,0,1,3,0,0,0.3,0.0,0,2025-03-17-22:56:30,1742244990848
111,2025-03-17-22:56:30,169489,202479,58154,57665,0.05,-0.416,0.905,0,82,100,897.8,100,0,0.0,0,0.0,0,0,0,0,0,1,3,0,0,0.3,0.0,22,2025-03-17-22:56:30,1742244990916
112,2025-03-17-22:56:30,170119,203080,58210,57733,0.051,-0.42,0.916,0,82,100,0.0,0,0,0.0,0,0.0,0,0,0,0,0,1,3,0,0,0.3,0.0,0,2025-03-17-22:56:30,1742244990958
113,2025-03-17-22:56:30,168853,202364,58138,57714,0.038,-0.44,0.884,0,82,100,0.0,0,0,0.0,0,0.0,0,0,0,0,0,1,3,0,0,0.3,0.0,0,2025-03-17-22:56:30,1742244990984
114,2025-03-17-22:56:30,166504,199785,57785,57353,0.044,-0.451,0.889,0,82,100,0.0,0,0,0.0,0,0.0,0,0,0,0,0,1,3,0,0,0.3,0.0,0,2025-03-17-22:56:31,1742244991017
115,2025-03-17-22:56:30,164073,197003,57402,56931,0.054,-0.4,0.911,0,82,100,0.0,0,0,0.0,0,0.0,0,0,0,0,0,1,3,0,0,0.3,0.0,0,2025-03-17-22:56:31,1742244991051
116,2025-03-17-22:56:31,162661,195246,57421,56994,0.05,-0.446,0.897,0,82,100,0.0,0,0,0.0,0,0.0,0,0,0,0,0,1,3,0,0,0.3,0.0,0,2025-03-17-22:56:31,1742244991107
117,2025-03-17-22:56:31,162318,194721,57568,57197,0.043,-0.444,0.892,0,82,100,0.0,0,0,0.0,0,0.0,0,0,0,0,0,1,3,0,0,0.3,0.0,0,2025-03-17-22:56:31,1742244991152
118,2025-03-17-22:56:31,162292,194830,57702,57335,0.049,-0.412,0.907,0,82,100,0.0,0,0,0.0,0,0.0,0,0,0,0,0,1,3,0,0,0.3,0.0,0,2025-03-17-22:56:31,1742244991187
119,2025-03-17-22:56:31,162328,195233,57786,57403,0.049,-0.427,0.902,0,82,100,0.0,0,0,0.0,0,0.0,0,0,0,0,0,1,3,0,0,0.3,0.0,0,2025-03-17-22:56:31,1742244991220
120,2025-03-17-22:56:31,162542,195926,57828,57423,0.051,-0.404,0.907,0,82,100,0.0,0,0,0.0,0,0.0,0,0,0,0,0,1,3,0,0,0.3,0.0,0,2025-03-17-22:56:31,1742244991253
121,2025-03-17-22:56:31,162757,196728,57804,57379,0.049,-0.426,0.904,0,82,100,0.0,0,0,0.0,0,0.0,0,0,0,0,0,1,3,0,0,0.3,0.0,0,2025-03-17-22:56:31,1742244991310
122,2025-03-17-22:56:31,163075,197525,57805,57377,0.044,-0.441,0.897,0,82,100,0.0,0,0,0.0,0,0.0,0,0,0,0,0,1,3,0,0,0.3,0.0,0,2025-03-17-22:56:31,1742244991344
123,2025-03-17-22:56:31,163476,198279,57825,57380,0.057,-0.407,0.912,0,82,100,0.0,0,0,0.0,0,0.0,0,0,0,0,0,1,3,0,0,0.3,0.0,0,2025-03-17-22:56:31,1742244991377
124,2025-03-17-22:56:31,163979,199023,57773,57308,0.051,-0.411,0.901,0,82,100,0.0,0,0,0.0,0,0.0,0,0,0,0,0,1,3,0,0,0.3,0.0,0,2025-03-17-22:56:31,1742244991422
125,2025-03-17-22:56:31,164571,199938,57678,57197,0.046,-0.441,0.889,0,82,100,0.0,0,0,0.0,0,0.0,0,0,0,0,0,1,3,0,0,0.3,0.0,0,2025-03-17-22:56:31,1742244991456
126,2025-03-17-22:56:31,164906,200760,57611,57105,0.047,-0.432,0.898,0,81,100,0.0,0,0,0.0,0,0.0,0,0,0,0,0,1,3,0,0,0.3,0.0,0,2025-03-17-22:56:31,1742244991512
127,2025-03-17-22:56:31,165442,201678,57496,56949,0.043,-0.466,0.894,0,81,100,0.0,0,0,0.0,0,0.0,0,0,0,0,0,1,3,0,0,0.3,0.0,0,2025-03-17-22:56:31,1742244991546
128,2025-03-17-22:56:31,166395,202854,57335,56713,0.053,-0.416,0.906,0,81,100,0.0,0,0,0.0,0,0.0,0,0,0,0,0,1,3,0,0,0.3,0.0,0,2025-03-17-22:56:31,1742244991580
129,2025-03-17-22:56:31,167216,203968,57215,56539,0.049,-0.415,0.906,0,81,100,0.0,0,0,0.0,0,0.0,0,0,0,0,0,1,3,0,0,0.3,0.0,0,2025-03-17-22:56:31,1742244991613
130,2025-03-17-22:56:31,167769,204815,57288,56608,0.048,-0.439,0.909,0,81,100,0.0,0,0,0.0,0,0.0,0,0,0,0,0,1,3,0,0,0.3,0.0,0,2025-03-17-22:56:31,1742244991658
131,2025-03-17-22:56:31,168499,205531,57475,56809,0.047,-0.413,0.907,0,81,100,0.0,0,0,0.0,0,0.0,0,0,0,0,0,1,3,0,0,0.3,0.0,0,2025-03-17-22:56:31,1742244991715
132,2025-03-17-22:56:31,169131,206109,57536,56860,0.049,-0.404,0.919,0,81,100,821.7,100,0,0.0,0,0.0,0,0,0,0,0,1,3,0,0,0.3,0.0,21,2025-03-17-22:56:31,1742244991748
133,2025-03-17-22:56:31,167863,205588,57408,56764,0.046,-0.434,0.892,0,81,100,0.0,0,0,0.0,0,0.0,0,0,0,0,0,1,3,0,0,0.3,0.0,0,2025-03-17-22:56:31,1742244991782
134,2025-03-17-22:56:31,165477,203517,57203,56594,0.052,-0.396,0.91,0,81,100,0.0,0,0,0.0,0,0.0,0,0,0,0,0,1,3,0,0,0.3,0.0,0,2025-03-17-22:56:31,1742244991816
135,2025-03-17-22:56:31,163433,201587,57022,56438,0.046,-0.43,0.905,0,81,100,0.0,0,0,0.0,0,0.0,0,0,0,0,0,1,3,0,0,0.3,0.0,0,2025-03-17-22:56:31,1742244991850
136,2025-03-17-22:56:31,162342,200748,56952,56368,0.044,-0.423,0.902,0,81,100,0.0,0,0,0.0,0,0.0,0,0,0,0,0,1,3,0,0,0.3,0.0,0,2025-03-17-22:56:31,1742244991917
137,2025-03-17-22:56:31,161631,200612,56948,56348,0.049,-0.394,0.903,0,81,100,0.0,0,0,0.0,0,0.0,0,0,0,0,0,1,3,0,0,0.3,0.0,0,2025-03-17-22:56:31,1742244991958
138,2025-03-17-22:56:31,161075,200865,56969,56356,0.05,-0.41,0.913,0,81,100,0.0,0,0,0.0,0,0.0,0,0,0,0,0,1,3,0,0,0.3,0.0,0,2025-03-17-22:56:31,1742244991984
139,2025-03-17-22:56:31,160651,201692,56980,56328,0.048,-0.406,0.895,0,81,100,0.0,0,0,0.0,0,0.0,0,0,0,0,0,1,3,0,0,0.3,0.0,0,2025-03-17-22:56:32,1742244992018
140,2025-03-17-22:56:31,160800,202719,57057,56400,0.049,-0.427,0.895,0,81,100,0.0,0,0,0.0,0,0.0,0,0,0,0,0,1,3,0,0,0.3,0.0,0,2025-03-17-22:56:32,1742244992052
141,2025-03-17-22:56:32,162535,203837,57140,56422,0.058,-0.369,0.914,0,81,100,0.0,0,0,0.0,0,0.0,0,0,0,0,0,1,3,0,0,0.3,0.0,0,2025-03-17-22:56:32,1742244992108
142,2025-03-17-22:56:32,164692,205035,57043,56279,0.05,-0.425,0.908,0,81,100,0.0,0,0,0.0,0,0.0,0,0,0,0,0,1,3,0,0,0.3,0.0,0,2025-03-17-22:56:32,1742244992154
143,2025-03-17-22:56:32,166630,205969,56940,56128,0.054,-0.419,0.911,0,81,100,0.0,0,0,0.0,0,0.0,0,0,0,0,0,1,3,0,0,0.3,0.0,0,2025-03-17-22:56:32,1742244992187
144,2025-03-17-22:56:32,167997,206742,56960,56152,0.05,-0.426,0.911,0,81,100,0.0,0,0,0.0,0,0.0,0,0,0,0,0,1,3,0,0,0.3,0.0,0,2025-03-17-22:56:32,1742244992221
145,2025-03-17-22:56:32,168318,207457,57059,56294,0.044,-0.442,0.89,0,81,100,0.0,0,0,0.0,0,0.0,0,0,0,0,0,1,3,0,0,0.3,0.0,0,2025-03-17-22:56:32,1742244992255
146,2025-03-17-22:56:32,167779,208068,57030,56265,0.055,-0.41,0.906,0,80,100,0.0,0,0,0.0,0,0.0,0,0,0,0,0,1,3,0,0,0.3,0.0,0,2025-03-17-22:56:32,1742244992311
147,2025-03-17-22:56:32,167191,208475,57078,56304,0.049,-0.403,0.907,0,80,100,0.0,0,0,0.0,0,0.0,0,0,0,0,0,1,3,0,0,0.3,0.0,0,2025-03-17-22:56:32,1742244992344
148,2025-03-17-22:56:32,167225,208825,57161,56389,0.048,-0.431,0.904,0,80,100,0.0,0,0,0.0,0,0.0,0,0,0,0,0,1,3,0,0,0.3,0.0,0,2025-03-17-22:56:32,1742244992378
149,2025-03-17-22:56:32,167926,209204,57271,56497,0.052,-0.401,0.908,0,80,100,0.0,0,0,0.0,0,0.0,0,0,0,0,0,1,3,0,0,0.3,0.0,0,2025-03-17-22:56:32,1742244992423
150,2025-03-17-22:56:32,169028,209662,57355,56564,0.051,-0.42,0.907,0,80,100,778.0,100,0,0.0,0,0.0,0,0,0,0,0,1,3,0,0,0.3,0.0,18,2025-03-17-22:56:32,1742244992457
151,2025-03-17-22:56:32,170447,210193,57400,56595,0.053,-0.396,0.914,0,80,100,0.0,0,0,0.0,0,0.0,0,0,0,0,0,1,3,0,0,0.3,0.0,0,2025-03-17-22:56:32,1742244992513
152,2025-03-17-22:56:32,171787,210689,57428,56619,0.051,-0.431,0.909,0,80,100,0.0,0,0,0.0,0,0.0,0,0,0,0,0,1,3,0,0,0.3,0.0,0,2025-03-17-22:56:32,1742244992547
153,2025-03-17-22:56:32,172002,210808,57318,56523,0.052,-0.413,0.91,0,80,100,0.0,0,0,0.0,0,0.0,0,0,0,0,0,1,3,0,0,0.3,0.0,0,2025-03-17-22:56:32,1742244992581
154,2025-03-17-22:56:32,170998,209907,57094,56317,0.052,-0.401,0.909,0,80,100,0.0,0,0,0.0,0,0.0,0,0,0,0,0,1,3,0,0,0.3,0.0,0,2025-03-17-22:56:32,1742244992614
155,2025-03-17-22:56:32,170600,208992,56903,56121,0.053,-0.427,0.907,0,80,100,0.0,0,0,0.0,0,0.0,0,0,0,0,0,1,3,0,0,0.3,0.0,0,2025-03-17-22:56:32,1742244992660
156,2025-03-17-22:56:32,171253,209128,56805,55998,0.052,-0.416,0.908,0,80,100,0.0,0,0,0.0,0,0.0,0,0,0,0,0,1,3,0,0,0.3,0.0,0,2025-03-17-22:56:32,1742244992716
157,2025-03-17-22:56:32,172298,209857,56816,56005,0.053,-0.402,0.909,0,80,100,0.0,0,0,0.0,0,0.0,0,0,0,0,0,1,3,0,0,0.3,0.0,0,2025-03-17-22:56:32,1742244992750
158,2025-03-17-22:56:32,172988,210549,56920,56140,0.051,-0.447,0.902,0,80,100,0.0,0,0,0.0,0,0.0,0,0,0,0,0,1,3,0,0,0.3,0.0,0,2025-03-17-22:56:32,1742244992784
159,2025-03-17-22:56:32,173348,211085,57078,56322,0.05,-0.409,0.91,0,80,100,0.0,0,0,0.0,0,0.0,0,0,0,0,0,1,3,0,0,0.3,0.0,0,2025-03-17-22:56:32,1742244992817
160,2025-03-17-22:56:32,173775,211621,57188,56427,0.054,-0.405,0.906,0,80,100,0.0,0,0,0.0,0,0.0,0,0,0,0,0,1,3,0,0,0.3,0.0,0,2025-03-17-22:56:32,1742244992851
161,2025-03-17-22:56:32,173842,212062,57202,56434,0.051,-0.409,0.909,0,80,100,0.0,0,0,0.0,0,0.0,0,0,0,0,0,1,3,0,0,0.3,0.0,0,2025-03-17-22:56:32,1742244992918
162,2025-03-17-22:56:32,173160,212369,57116,56339,0.052,-0.41,0.913,0,80,100,0.0,0,0,0.0,0,0.0,0,0,0,0,0,1,3,0,0,0.3,0.0,0,2025-03-17-22:56:32,1742244992958
163,2025-03-17-22:56:32,171949,212403,56999,56215,0.046,-0.445,0.895,0,80,100,0.0,0,0,0.0,0,0.0,0,0,0,0,0,1,3,0,0,0.3,0.0,0,2025-03-17-22:56:32,1742244992986
164,2025-03-17-22:56:32,171044,212379,56957,56173,0.051,-0.425,0.902,0,80,100,0.0,0,0,0.0,0,0.0,0,0,0,0,0,1,3,0,0,0.3,0.0,0,2025-03-17-22:56:33,1742244993020
165,2025-03-17-22:56:32,170483,212444,56926,56128,0.053,-0.426,0.906,0,80,100,0.0,0,0,0.0,0,0.0,0,0,0,0,0,1,3,0,0,0.3,0.0,0,2025-03-17-22:56:33,1742244993053
166,2025-03-17-22:56:33,170554,212731,56830,55998,0.047,-0.424,0.91,0,79,100,0.0,0,0,0.0,0,0.0,0,0,0,0,0,1,3,0,0,0.3,0.0,0,2025-03-17-22:56:33,1742244993109
167,2025-03-17-22:56:33,171462,213293,56780,55913,0.053,-0.426,0.902,0,79,100,0.0,0,0,0.0,0,0.0,0,0,0,0,0,1,3,0,0,0.3,0.0,0,2025-03-17-22:56:33,1742244993154
168,2025-03-17-22:56:33,172487,213931,56848,56001,0.055,-0.443,0.905,0,79,100,0.0,0,0,0.0,0,0.0,0,0,0,0,0,1,3,0,0,0.4,0.0,0,2025-03-17-22:56:33,1742244993188
169,2025-03-17-22:56:33,173102,214441,57020,56211,0.049,-0.446,0.896,0,79,100,0.0,0,0,0.0,0,0.0,0,0,0,0,0,1,3,0,0,0.4,0.0,0,2025-03-17-22:56:33,1742244993222
170,2025-03-17-22:56:33,173478,214851,57256,56469,0.051,-0.416,0.907,0,79,100,0.0,0,0,0.0,0,0.0,0,0,0,0,0,1,3,0,0,0.4,0.0,0,2025-03-17-22:56:33,1742244993256
171,2025-03-17-22:56:33,173832,215172,57348,56544,0.047,-0.427,0.899,0,79,100,780.3,100,0,0.0,0,0.0,0,0,0,0,0,1,3,0,0,0.4,0.0,21,2025-03-17-22:56:33,1742244993312
172,2025-03-17-22:56:33,174568,215414,57358,56545,0.049,-0.454,0.882,0,79,100,0.0,0,0,0.0,0,0.0,0,0,0,0,0,1,3,0,0,0.4,0.0,0,2025-03-17-22:56:33,1742244993346
173,2025-03-17-22:56:33,173874,215099,57308,56540,0.049,-0.416,0.892,0,79,100,0.0,0,0,0.0,0,0.0,0,0,0,0,0,1,3,0,0,0.4,0.0,0,2025-03-17-22:56:33,1742244993380
174,2025-03-17-22:56:33,171960,213667,57131,56406,0.05,-0.44,0.906,0,79,100,0.0,0,0,0.0,0,0.0,0,0,0,0,0,1,3,0,0,0.4,0.0,0,2025-03-17-22:56:33,1742244993424
175,2025-03-17-22:56:33,171027,212457,56965,56255,0.046,-0.456,0.881,0,79,100,0.0,0,0,0.0,0,0.0,0,0,0,0,0,1,3,0,0,0.4,0.0,0,2025-03-17-22:56:33,1742244993459
176,2025-03-17-22:56:33,171045,212358,56941,56233,0.05,-0.429,0.912,0,79,100,0.0,0,0,0.0,0,0.0,0,0,0,0,0,1,3,0,0,0.4,0.0,0,2025-03-17-22:56:33,1742244993514
177,2025-03-17-22:56:33,171080,212702,57070,56374,0.051,-0.412,0.907,0,79,100,0.0,0,0,0.0,0,0.0,0,0,0,0,0,1,3,0,0,0.4,0.0,0,2025-03-17-22:56:33,1742244993548
178,2025-03-17-22:56:33,171019,213145,57200,56501,0.051,-0.41,0.908,0,79,100,0.0,0,0,0.0,0,0.0,0,0,0,0,0,1,3,0,0,0.4,0.0,0,2025-03-17-22:56:33,1742244993582
179,2025-03-17-22:56:33,171329,213629,57245,56523,0.052,-0.425,0.909,0,79,100,0.0,0,0,0.0,0,0.0,0,0,0,0,0,1,3,0,0,0.4,0.0,0,2025-03-17-22:56:33,1742244993616
180,2025-03-17-22:56:33,172304,214177,57221,56467,0.053,-0.444,0.887,0,79,100,0.0,0,0,0.0,0,0.0,0,0,0,0,0,1,3,0,0,0.4,0.0,0,2025-03-17-22:56:33,1742244993660
181,2025-03-17-22:56:33,172676,214601,57107,56341,0.055,-0.427,0.905,0,79,100,0.0,0,0,0.0,0,0.0,0,0,0,0,0,1,3,0,0,0.4,0.0,0,2025-03-17-22:56:33,1742244993717
182,2025-03-17-22:56:33,172767,214805,56970,56185,0.043,-0.462,0.903,0,79,100,0.0,0,0,0.0,0,0.0,0,0,0,0,0,1,3,0,0,0.4,0.0,0,2025-03-17-22:56:33,1742244993751
183,2025-03-17-22:56:33,173298,215147,56827,55990,0.06,-0.42,0.906,0,79,100,0.0,0,0,0.0,0,0.0,0,0,0,0,0,1,3,0,0,0.4,0.0,0,2025-03-17-22:56:33,1742244993785
184,2025-03-17-22:56:33,173759,215557,56728,55844,0.054,-0.447,0.89,0,79,100,0.0,0,0,0.0,0,0.0,0,0,0,0,0,1,3,0,0,0.4,0.0,0,2025-03-17-22:56:33,1742244993818
185,2025-03-17-22:56:33,173753,215886,56808,55928,0.044,-0.452,0.884,0,79,100,0.0,0,0,0.0,0,0.0,0,0,0,0,0,1,3,0,0,0.4,0.0,0,2025-03-17-22:56:33,1742244993852
186,2025-03-17-22:56:34,173757,216161,57041,56215,0.053,-0.425,0.899,0,78,100,0.0,0,0,0.0,0,0.0,0,0,0,0,0,1,3,0,0,0.4,0.0,0,2025-03-17-22:56:33,1742244993919
187,2025-03-17-22:56:34,173805,216443,57164,56345,0.041,-0.474,0.879,0,78,100,0.0,0,0,0.0,0,0.0,0,0,0,0,0,1,3,0,0,0.4,0.0,0,2025-03-17-22:56:33,1742244993957
188,2025-03-17-22:56:34,174223,216712,57156,56308,0.046,-0.426,0.879,0,78,100,0.0,0,0,0.0,0,0.0,0,0,0,0,0,1,3,0,0,0.4,0.0,0,2025-03-17-22:56:33,1742244993987
189,2025-03-17-22:56:34,174735,217061,57099,56241,0.052,-0.451,0.889,0,78,100,0.0,0,0,0.0,0,0.0,0,0,0,0,0,1,3,0,0,0.4,0.0,0,2025-03-17-22:56:34,1742244994020
190,2025-03-17-22:56:34,175346,217421,57033,56155,0.041,-0.459,0.888,0,78,100,0.0,0,0,0.0,0,0.0,0,0,0,0,0,1,3,0,0,0.4,0.0,0,2025-03-17-22:56:34,1742244994054
191,2025-03-17-22:56:34,176261,217792,56961,56066,0.053,-0.459,0.894,0,78,100,798.8,100,0,0.0,0,0.0,0,0,0,0,0,1,3,0,0,0.4,0.0,20,2025-03-17-22:56:34,1742244994110
192,2025-03-17-22:56:34,175468,217327,56952,56112,0.048,-0.444,0.898,0,78,100,0.0,0,0,0.0,0,0.0,0,0,0,0,0,1,3,0,0,0.4,0.0,0,2025-03-17-22:56:34,1742244994144
193,2025-03-17-22:56:34,173236,215569,56986,56230,0.045,-0.444,0.896,0,78,100,0.0,0,0,0.0,0,0.0,0,0,0,0,0,1,3,0,0,0.4,0.0,0,2025-03-17-22:56:34,1742244994189
194,2025-03-17-22:56:34,171304,213938,57053,56349,0.048,-0.437,0.9,0,78,100,0.0,0,0,0.0,0,0.0,0,0,0,0,0,1,3,0,0,0.4,0.0,0,2025-03-17-22:56:34,1742244994223
195,2025-03-17-22:56:34,170234,213367,57028,56305,0.047,-0.468,0.887,0,78,100,0.0,0,0,0.0,0,0.0,0,0,0,0,0,1,3,0,0,0.4,0.0,0,2025-03-17-22:56:34,1742244994257
196,2025-03-17-22:56:34,170128,213427,56950,56189,0.047,-0.451,0.877,0,78,100,0.0,0,0,0.0,0,0.0,0,0,0,0,0,1,3,0,0,0.4,0.0,0,2025-03-17-22:56:34,1742244994313
197,2025-03-17-22:56:34,170139,213752,56848,56075,0.051,-0.438,0.89,0,78,100,0.0,0,0,0.0,0,0.0,0,0,0,0,0,1,3,0,0,0.4,0.0,0,2025-03-17-22:56:34,1742244994347
198,2025-03-17-22:56:34,170287,214165,56733,55945,0.039,-0.478,0.895,0,78,100,0.0,0,0,0.0,0,0.0,0,0,0,0,0,1,3,0,0,0.4,0.0,0,2025-03-17-22:56:34,1742244994381
199,2025-03-17-22:56:34,171193,214835,56650,55834,0.054,-0.455,0.889,0,78,100,0.0,0,0,0.0,0,0.0,0,0,0,0,0,1,3,0,0,0.4,0.0,0,2025-03-17-22:56:34,1742244994425
200,2025-03-17-22:56:34,172023,215442,56688,55876,0.051,-0.427,0.898,0,78,100,0.0,0,0,0.0,0,0.0,0,0,0,0,0,1,3,0,0,0.4,0.0,0,2025-03-17-22:56:34,1742244994459
201,2025-03-17-22:56:34,172141,215817,56833,56064,0.048,-0.434,0.893,0,78,100,0.0,0,0,0.0,0,0.0,0,0,0,0,0,1,3,0,0,0.4,0.0,0,2025-03-17-22:56:34,1742244994515
202,2025-03-17-22:56:34,172001,216018,57054,56309,0.047,-0.445,0.895,0,78,100,0.0,0,0,0.0,0,0.0,0,0,0,0,0,1,3,0,0,0.4,0.0,0,2025-03-17-22:56:34,1742244994549
203,2025-03-17-22:56:34,172002,216321,57081,56312,0.04,-0.462,0.885,0,78,100,0.0,0,0,0.0,0,0.0,0,0,0,0,0,1,3,0,0,0.4,0.0,0,2025-03-17-22:56:34,1742244994584
204,2025-03-17-22:56:34,172248,216615,57032,56227,0.045,-0.435,0.875,0,78,100,0.0,0,0,0.0,0,0.0,0,0,0,0,0,1,3,0,0,0.4,0.0,0,2025-03-17-22:56:34,1742244994617
205,2025-03-17-22:56:34,172410,216900,56968,56147,0.048,-0.439,0.89,0,78,100,0.0,0,0,0.0,0,0.0,0,0,0,0,0,1,3,0,0,0.4,0.0,0,2025-03-17-22:56:34,1742244994662
206,2025-03-17-22:56:34,172614,217171,56854,56024,0.038,-0.468,0.895,0,78,100,0.0,0,0,0.0,0,0.0,0,0,0,0,0,1,3,0,0,0.4,0.0,0,2025-03-17-22:56:34,1742244994718
207,2025-03-17-22:56:34,173468,217583,56785,55934,0.053,-0.454,0.885,0,78,100,0.0,0,0,0.0,0,0.0,0,0,0,0,0,1,3,0,0,0.4,0.0,0,2025-03-17-22:56:34,1742244994752
208,2025-03-17-22:56:34,174438,218027,56837,55977,0.045,-0.45,0.9,0,78,100,0.0,0,0,0.0,0,0.0,0,0,0,0,0,1,3,0,0,0.4,0.0,0,2025-03-17-22:56:34,1742244994785
209,2025-03-17-22:56:34,175045,218382,56984,56149,0.047,-0.457,0.892,0,78,100,0.0,0,0,0.0,0,0.0,0,0,0,0,0,1,3,0,0,0.4,0.0,0,2025-03-17-22:56:34,1742244994819
210,2025-03-17-22:56:34,175291,218635,57169,56335,0.049,-0.433,0.898,0,78,100,775.0,100,0,0.0,0,0.0,0,0,0,0,0,1,3,0,0,0.4,0.0,19,2025-03-17-22:56:34,1742244994853
211,2025-03-17-22:56:35,173859,218160,57158,56338,0.045,-0.452,0.893,0,77,100,0.0,0,0,0.0,0,0.0,0,0,0,0,0,1,3,0,0,0.4,0.0,0,2025-03-17-22:56:34,1742244994920
212,2025-03-17-22:56:35,171095,216217,56994,56217,0.041,-0.441,0.872,0,77,100,0.0,0,0,0.0,0,0.0,0,0,0,0,0,1,3,0,0,0.4,0.0,0,2025-03-17-22:56:34,1742244994957
213,2025-03-17-22:56:35,168808,214094,56855,56113,0.047,-0.429,0.895,0,77,100,0.0,0,0,0.0,0,0.0,0,0,0,0,0,1,3,0,0,0.4,0.0,0,2025-03-17-22:56:34,1742244994988
214,2025-03-17-22:56:35,167126,212817,56728,55997,0.045,-0.453,0.898,0,77,100,0.0,0,0,0.0,0,0.0,0,0,0,0,0,1,3,0,0,0.4,0.0,0,2025-03-17-22:56:35,1742244995022
215,2025-03-17-22:56:35,166207,212370,56677,55946,0.043,-0.459,0.882,0,77,100,0.0,0,0,0.0,0,0.0,0,0,0,0,0,1,3,0,0,0.4,0.0,0,2025-03-17-22:56:35,1742244995055
216,2025-03-17-22:56:35,165619,212363,56692,55955,0.046,-0.437,0.898,0,77,100,0.0,0,0,0.0,0,0.0,0,0,0,0,0,1,3,0,0,0.4,0.0,0,2025-03-17-22:56:35,1742244995112
217,2025-03-17-22:56:35,165233,212564,56720,55967,0.045,-0.44,0.892,0,77,100,0.0,0,0,0.0,0,0.0,0,0,0,0,0,1,3,0,0,0.4,0.0,0,2025-03-17-22:56:35,1742244995156
218,2025-03-17-22:56:35,165005,212878,56727,55963,0.05,-0.445,0.894,0,77,100,383.9,25,0,0.0,0,0.0,0,0,0,0,0,1,3,0,0,0.4,0.0,0,2025-03-17-22:56:35,1742244995190
219,2025-03-17-22:56:35,164722,213033,56713,55940,0.049,-0.447,0.9,0,77,100,0.0,0,0,0.0,0,0.0,0,0,0,0,0,1,3,0,0,0.4,0.0,0,2025-03-17-22:56:35,1742244995224
220,2025-03-17-22:56:35,164302,212960,56698,55931,0.048,-0.465,0.889,0,77,100,0.0,0,0,0.0,0,0.0,0,0,0,0,0,1,3,0,0,0.4,0.0,0,2025-03-17-22:56:35,1742244995258
221,2025-03-17-22:56:35,164104,212794,56711,55946,0.048,-0.448,0.891,0,77,100,0.0,0,0,0.0,0,0.0,0,0,0,0,0,1,3,0,0,0.4,0.0,0,2025-03-17-22:56:35,1742244995314
222,2025-03-17-22:56:35,164597,212905,56734,55963,0.047,-0.438,0.895,0,77,100,0.0,0,0,0.0,0,0.0,0,0,0,0,0,1,3,0,0,0.4,0.0,0,2025-03-17-22:56:35,1742244995348
223,2025-03-17-22:56:35,165451,213275,56751,55963,0.045,-0.449,0.89,0,77,100,0.0,0,0,0.0,0,0.0,0,0,0,0,0,1,3,0,0,0.4,0.0,0,2025-03-17-22:56:35,1742244995381
224,2025-03-17-22:56:35,166739,213845,56792,55990,0.047,-0.433,0.898,0,77,100,0.0,0,0,0.0,0,0.0,0,0,0,0,0,1,3,0,0,0.4,0.0,0,2025-03-17-22:56:35,1742244995427
225,2025-03-17-22:56:35,168060,214433,56842,56026,0.047,-0.439,0.9,0,77,100,0.0,0,0,0.0,0,0.0,0,0,0,0,0,1,3,0,0,0.4,0.0,0,2025-03-17-22:56:35,1742244995460
226,2025-03-17-22:56:35,169126,214945,56897,56087,0.051,-0.447,0.9,0,77,100,0.0,0,0,0.0,0,0.0,0,0,0,0,0,1,3,0,0,0.4,0.0,0,2025-03-17-22:56:35,1742244995516
227,2025-03-17-22:56:35,170010,215387,57019,56215,0.045,-0.45,0.896,0,77,75,0.0,0,0,0.0,0,0.0,0,0,0,0,0,1,3,0,0,0.4,0.0,0,2025-03-17-22:56:35,1742244995550
228,2025-03-17-22:56:35,170811,215800,57131,56323,0.05,-0.437,0.897,0,77,75,0.0,0,0,0.0,0,0.0,0,0,0,0,0,1,3,0,0,0.4,0.0,0,2025-03-17-22:56:35,1742244995584
229,2025-03-17-22:56:35,171480,216207,57179,56362,0.049,-0.445,0.897,0,77,75,0.0,0,0,0.0,0,0.0,0,0,0,0,0,1,3,0,0,0.4,0.0,0,2025-03-17-22:56:35,1742244995618
230,2025-03-17-22:56:35,170939,215993,57164,56368,0.044,-0.43,0.895,0,77,75,436.8,50,0,0.0,0,0.0,0,0,0,0,0,1,3,0,0,0.4,0.0,20,2025-03-17-22:56:35,1742244995663
231,2025-03-17-22:56:35,168560,213975,57058,56321,0.043,-0.444,0.892,0,77,75,0.0,0,0,0.0,0,0.0,0,0,0,0,0,1,3,0,0,0.4,0.0,0,2025-03-17-22:56:35,1742244995719
232,2025-03-17-22:56:35,166077,211373,56946,56252,0.045,-0.448,0.89,0,77,75,0.0,0,0,0.0,0,0.0,0,0,0,0,0,1,3,0,0,0.4,0.0,0,2025-03-17-22:56:35,1742244995753
233,2025-03-17-22:56:35,164252,209786,56852,56158,0.043,-0.448,0.893,0,77,75,0.0,0,0,0.0,0,0.0,0,0,0,0,0,1,3,0,0,0.4,0.0,0,2025-03-17-22:56:35,1742244995787
234,2025-03-17-22:56:35,163024,209188,56792,56092,0.044,-0.447,0.889,0,77,75,0.0,0,0,0.0,0,0.0,0,0,0,0,0,1,3,0,0,0.4,0.0,0,2025-03-17-22:56:35,1742244995820
235,2025-03-17-22:56:35,162046,208912,56764,56065,0.043,-0.454,0.892,0,77,75,0.0,0,0,0.0,0,0.0,0,0,0,0,0,1,3,0,0,0.4,0.0,0,2025-03-17-22:56:35,1742244995854
236,2025-03-17-22:56:36,161117,208685,56747,56035,0.043,-0.45,0.889,0,76,75,0.0,0,0,0.0,0,0.0,0,0,0,0,0,1,3,0,0,0.4,0.0,0,2025-03-17-22:56:35,1742244995921
237,2025-03-17-22:56:36,160351,208608,56739,56019,0.041,-0.447,0.89,0,76,75,0.0,0,0,0.0,0,0.0,0,0,0,0,0,1,3,0,0,0.4,0.0,0,2025-03-17-22:56:35,1742244995957
238,2025-03-17-22:56:36,159594,208420,56739,56017,0.042,-0.45,0.89,0,76,75,0.0,0,0,0.0,0,0.0,0,0,0,0,0,1,3,0,0,0.4,0.0,0,2025-03-17-22:56:35,1742244995989
239,2025-03-17-22:56:36,158678,207952,56734,56019,0.043,-0.451,0.89,0,76,75,0.0,0,0,0.0,0,0.0,0,0,0,0,0,1,3,0,0,0.4,0.0,0,2025-03-17-22:56:36,1742244996023
240,2025-03-17-22:56:36,157663,207218,56727,56017,0.043,-0.456,0.889,0,76,75,0.0,0,0,0.0,0,0.0,0,0,0,0,0,1,3,0,0,0.4,0.0,0,2025-03-17-22:56:36,1742244996056
241,2025-03-17-22:56:36,156722,206490,56721,56007,0.041,-0.46,0.89,0,76,75,0.0,0,0,0.0,0,0.0,0,0,0,0,0,1,3,0,0,0.4,0.0,0,2025-03-17-22:56:36,1742244996113
242,2025-03-17-22:56:36,155950,205951,56719,56010,0.042,-0.448,0.891,0,76,75,0.0,0,0,0.0,0,0.0,0,0,0,0,0,1,3,0,0,0.4,0.0,0,2025-03-17-22:56:36,1742244996157
243,2025-03-17-22:56:36,155395,205600,56733,56024,0.041,-0.452,0.892,0,76,75,0.0,0,0,0.0,0,0.0,0,0,0,0,0,1,3,0,0,0.4,0.0,0,2025-03-17-22:56:36,1742244996192
244,2025-03-17-22:56:36,154981,205305,56763,56052,0.041,-0.452,0.891,0,76,75,0.0,0,0,0.0,0,0.0,0,0,0,0,0,1,3,0,0,0.4,0.0,0,2025-03-17-22:56:36,1742244996225
245,2025-03-17-22:56:36,154631,204991,56780,56072,0.04,-0.458,0.884,0,76,75,0.0,0,0,0.0,0,0.0,0,0,0,0,0,1,3,0,0,0.4,0.0,0,2025-03-17-22:56:36,1742244996259
246,2025-03-17-22:56:36,154316,204738,56793,56076,0.039,-0.452,0.891,0,76,75,0.0,0,0,0.0,0,0.0,0,0,0,0,0,1,3,0,0,0.4,0.0,0,2025-03-17-22:56:36,1742244996315
247,2025-03-17-22:56:36,154034,204470,56823,56103,0.039,-0.454,0.888,0,76,75,0.0,0,0,0.0,0,0.0,0,0,0,0,0,1,3,0,0,0.4,0.0,0,2025-03-17-22:56:36,1742244996349
248,2025-03-17-22:56:36,153818,204177,56858,56141,0.04,-0.454,0.889,0,76,75,0.0,0,0,0.0,0,0.0,0,0,0,0,0,1,3,0,0,0.4,0.0,0,2025-03-17-22:56:36,1742244996383
249,2025-03-17-22:56:36,153618,203846,56882,56166,0.038,-0.459,0.887,0,76,75,759.9,25,0,0.0,0,0.0,0,0,0,0,0,1,3,0,0,0.4,0.0,19,2025-03-17-22:56:36,1742244996428
250,2025-03-17-22:56:36,152544,202312,56862,56181,0.04,-0.453,0.886,0,76,75,0.0,0,0,0.0,0,0.0,0,0,0,0,0,1,3,0,0,0.4,0.0,0,2025-03-17-22:56:36,1742244996461
251,2025-03-17-22:56:36,149712,197886,56746,56139,0.041,-0.461,0.887,0,76,75,0.0,0,0,0.0,0,0.0,0,0,0,0,0,1,3,0,0,0.4,0.0,0,2025-03-17-22:56:36,1742244996518
252,2025-03-17-22:56:36,146745,193258,56611,56047,0.038,-0.455,0.886,0,76,75,0.0,0,0,0.0,0,0.0,0,0,0,0,0,1,3,0,0,0.4,0.0,0,2025-03-17-22:56:36,1742244996552
253,2025-03-17-22:56:36,144600,190028,56549,56004,0.036,-0.458,0.887,0,76,75,0.0,0,0,0.0,0,0.0,0,0,0,0,0,1,3,0,0,0.4,0.0,0,2025-03-17-22:56:36,1742244996585
254,2025-03-17-22:56:36,143230,187910,56524,55983,0.039,-0.455,0.886,0,76,75,0.0,0,0,0.0,0,0.0,0,0,0,0,0,1,3,0,0,0.4,0.0,0,2025-03-17-22:56:36,1742244996619
255,2025-03-17-22:56:36,142252,186299,56514,55977,0.037,-0.457,0.886,0,76,75,0.0,0,0,0.0,0,0.0,0,0,0,0,0,1,3,0,0,0.4,0.0,0,2025-03-17-22:56:36,1742244996653
0,2025-03-17-22:56:36,141492,184939,56524,55993,0.037,-0.458,0.884,0,76,75,0.0,0,0,0.0,0,0.0,0,0,0,0,0,1,3,0,0,0.4,0.0,0,2025-03-17-22:56:36,1742244996720
1,2025-03-17-22:56:36,140983,183887,56545,56020,0.038,-0.458,0.887,0,76,75,0.0,0,0,0.0,0,0.0,0,0,0,0,0,1,3,0,0,0.4,0.0,0,2025-03-17-22:56:36,1742244996754
2,2025-03-17-22:56:36,140557,182870,56542,56035,0.037,-0.462,0.885,0,76,75,0.0,0,0,0.0,0,0.0,0,0,0,0,0,1,3,0,0,0.4,0.0,0,2025-03-17-22:56:36,1742244996788
3,2025-03-17-22:56:36,140429,181887,56533,56052,0.037,-0.451,0.881,0,76,75,0.0,0,0,0.0,0,0.0,0,0,0,0,0,1,3,0,0,0.4,0.0,0,2025-03-17-22:56:36,1742244996822
4,2025-03-17-22:56:36,140726,181018,56523,56053,0.037,-0.461,0.887,0,76,75,0.0,0,0,0.0,0,0.0,0,0,0,0,0,1,3,0,0,0.4,0.0,0,2025-03-17-22:56:36,1742244996855
5,2025-03-17-22:56:37,141013,180329,56445,55948,0.041,-0.46,0.889,0,76,75,0.0,0,0,0.0,0,0.0,0,0,0,0,0,1,3,0,0,0.4,0.0,0,2025-03-17-22:56:36,1742244996922
6,2025-03-17-22:56:37,141688,180081,56354,55808,0.043,-0.445,0.881,0,76,75,0.0,0,0,0.0,0,0.0,0,0,0,0,0,1,3,0,0,0.4,0.0,0,2025-03-17-22:56:36,1742244996957
7,2025-03-17-22:56:37,143123,180519,56283,55681,0.036,-0.469,0.89,0,76,75,0.0,0,0,0.0,0,0.0,0,0,0,0,0,1,3,0,0,0.4,0.0,0,2025-03-17-22:56:36,1742244996990
8,2025-03-17-22:56:37,144931,181387,56225,55577,0.046,-0.458,0.891,0,76,75,0.0,0,0,0.0,0,0.0,0,0,0,0,0,1,3,0,0,0.4,0.0,0,2025-03-17-22:56:37,1742244997024
9,2025-03-17-22:56:37,146768,182548,56240,55573,0.043,-0.457,0.883,0,76,75,0.0,0,0,0.0,0,0.0,0,0,0,0,0,1,3,0,0,0.4,0.0,0,2025-03-17-22:56:37,1742244997058
10,2025-03-17-22:56:37,148446,183825,56389,55725,0.045,-0.439,0.894,0,76,75,0.0,0,0,0.0,0,0.0,0,0,0,0,0,1,3,0,0,0.4,0.0,0,2025-03-17-22:56:37,1742244997114
11,2025-03-17-22:56:37,149816,184963,56633,55982,0.041,-0.458,0.891,0,76,75,0.0,0,0,0.0,0,0.0,0,0,0,0,0,1,3,0,0,0.4,0.0,0,2025-03-17-22:56:37,1742244997148
12,2025-03-17-22:56:37,151102,186105,56849,56191,0.042,-0.453,0.89,0,76,75,0.0,0,0,0.0,0,0.0,0,0,0,0,0,1,3,0,0,0.4,0.0,0,2025-03-17-22:56:37,1742244997192
13,2025-03-17-22:56:37,152585,187350,56911,56218,0.039,-0.452,0.892,0,76,75,768.7,50,0,0.0,0,0.0,0,0,0,0,0,1,3,0,0,0.4,0.0,20,2025-03-17-22:56:37,1742244997226
14,2025-03-17-22:56:37,153885,188439,56895,56209,0.044,-0.451,0.885,0,76,75,0.0,0,0,0.0,0,0.0,0,0,0,0,0,1,3,0,0,0.4,0.0,0,2025-03-17-22:56:37,1742244997260
15,2025-03-17-22:56:37,153069,187456,56757,56135,0.045,-0.459,0.882,0,76,75,0.0,0,0,0.0,0,0.0,0,0,0,0,0,1,3,0,0,0.5,0.0,0,2025-03-17-22:56:37,1742244997316
16,2025-03-17-22:56:37,151239,184459,56564,55998,0.031,-0.481,0.883,0,76,75,0.0,0,0,0.0,0,0.0,0,0,0,0,0,1,3,0,0,0.5,0.0,0,2025-03-17-22:56:37,1742244997350
17,2025-03-17-22:56:37,150281,182385,56390,55817,0.047,-0.463,0.888,0,76,75,0.0,0,0,0.0,0,0.0,0,0,0,0,0,1,3,0,0,0.5,0.0,0,2025-03-17-22:56:37,1742244997384
18,2025-03-17-22:56:37,150341,181863,56360,55777,0.043,-0.462,0.888,0,76,75,0.0,0,0,0.0,0,0.0,0,0,0,0,0,1,3,0,0,0.5,0.0,0,2025-03-17-22:56:37,1742244997429
19,2025-03-17-22:56:37,150585,182145,56401,55816,0.042,-0.452,0.891,0,76,75,0.0,0,0,0.0,0,0.0,0,0,0,0,0,1,3,0,0,0.5,0.0,0,2025-03-17-22:56:37,1742244997463
20,2025-03-17-22:56:37,150764,182584,56558,55972,0.038,-0.448,0.891,0,76,75,0.0,0,0,0.0,0,0.0,0,0,0,0,0,1,3,0,0,0.5,0.0,0,2025-03-17-22:56:37,1742244997519
21,2025-03-17-22:56:37,151106,183128,56720,56123,0.044,-0.443,0.894,0,76,75,0.0,0,0,0.0,0,0.0,0,0,0,0,0,1,3,0,0,0.5,0.0,0,2025-03-17-22:56:37,1742244997552
22,2025-03-17-22:56:37,151427,183775,56723,56096,0.046,-0.448,0.894,0,76,75,0.0,0,0,0.0,0,0.0,0,0,0,0,0,1,3,0,0,0.5,0.0,0,2025-03-17-22:56:37,1742244997586
23,2025-03-17-22:56:37,151486,184103,56677,56029,0.044,-0.462,0.885,0,76,75,0.0,0,0,0.0,0,0.0,0,0,0,0,0,1,3,0,0,0.5,0.0,0,2025-03-17-22:56:37,1742244997621
24,2025-03-17-22:56:37,151021,183769,56647,56002,0.04,-0.474,0.881,0,76,75,0.0,0,0,0.0,0,0.0,0,0,0,0,0,1,3,0,0,0.5,0.0,0,2025-03-17-22:56:37,1742244997654
25,2025-03-17-22:56:37,150436,183137,56598,55957,0.04,-0.462,0.884,0,76,75,0.0,0,0,0.0,0,0.0,0,0,0,0,0,1,3,0,0,0.5,0.0,0,2025-03-17-22:56:37,1742244997721
26,2025-03-17-22:56:37,150110,182887,56498,55862,0.046,-0.429,0.901,0,76,75,0.0,0,0,0.0,0,0.0,0,0,0,0,0,1,3,0,0,0.5,0.0,0,2025-03-17-22:56:37,1742244997755
27,2025-03-17-22:56:37,150113,182994,56438,55798,0.044,-0.473,0.891,0,76,75,0.0,0,0,0.0,0,0.0,0,0,0,0,0,1,3,0,0,0.5,0.0,0,2025-03-17-22:56:37,1742244997789
28,2025-03-17-22:56:37,150509,183449,56455,55809,0.047,-0.445,0.896,0,76,75,0.0,0,0,0.0,0,0.0,0,0,0,0,0,1,3,0,0,0.5,0.0,0,2025-03-17-22:56:37,1742244997823
29,2025-03-17-22:56:37,151041,184087,56499,55850,0.044,-0.456,0.886,0,76,75,0.0,0,0,0.0,0,0.0,0,0,0,0,0,1,3,0,0,0.5,0.0,0,2025-03-17-22:56:37,1742244997856
30,2025-03-17-22:56:38,151489,184685,56639,56003,0.045,-0.431,0.894,0,76,75,0.0,0,0,0.0,0,0.0,0,0,0,0,0,1,3,0,0,0.5,0.0,0,2025-03-17-22:56:37,1742244997912
31,2025-03-17-22:56:38,151873,185227,56784,56147,0.041,-0.448,0.894,0,76,75,0.0,0,0,0.0,0,0.0,0,0,0,0,0,1,3,0,0,0.5,0.0,0,2025-03-17-22:56:37,1742244997957
32,2025-03-17-22:56:38,152354,185956,56835,56165,0.042,-0.456,0.886,0,76,75,0.0,0,0,0.0,0,0.0,0,0,0,0,0,1,3,0,0,0.5,0.0,0,2025-03-17-22:56:37,1742244997991
33,2025-03-17-22:56:38,153062,186803,56801,56123,0.042,-0.444,0.882,0,76,75,779.0,100,0,0.0,0,0.0,0,0,0,0,0,1,3,0,0,0.5,0.0,20,2025-03-17-22:56:38,1742244998025
34,2025-03-17-22:56:38,152644,186093,56726,56105,0.039,-0.456,0.885,0,76,75,0.0,0,0,0.0,0,0.0,0,0,0,0,0,1,3,0,0,0.5,0.0,0,2025-03-17-22:56:38,1742244998059
35,2025-03-17-22:56:38,151101,183445,56559,56004,0.04,-0.478,0.889,0,76,75,0.0,0,0,0.0,0,0.0,0,0,0,0,0,1,3,0,0,0.5,0.0,0,2025-03-17-22:56:38,1742244998115
36,2025-03-17-22:56:38,150114,181429,56361,55800,0.04,-0.452,0.885,0,76,100,0.0,0,0,0.584,99,97.0,228,0,0,0,0,1,3,0,0,0.5,0.0,0,2025-03-17-22:56:38,1742244998149
37,2025-03-17-22:56:38,150097,180966,56282,55700,0.046,-0.439,0.89,0,76,100,0.0,0,0,0.584,99,97.0,0,0,0,0,0,1,3,0,0,0.5,0.0,0,2025-03-17-22:56:38,1742244998194
38,2025-03-17-22:56:38,150533,181249,56345,55767,0.045,-0.459,0.888,0,76,100,0.0,0,0,0.584,99,97.0,0,0,0,0,0,1,3,0,0,0.5,0.0,0,2025-03-17-22:56:38,1742244998228
39,2025-03-17-22:56:38,150955,181871,56472,55902,0.041,-0.458,0.89,0,76,100,0.0,0,0,0.584,99,97.0,0,0,0,0,0,1,3,0,0,0.5,0.0,0,2025-03-17-22:56:38,1742244998261
40,2025-03-17-22:56:38,151453,182654,56631,56043,0.043,-0.452,0.891,0,76,100,0.0,0,0,0.584,99,97.0,0,0,0,0,0,1,3,0,0,0.5,0.0,0,2025-03-17-22:56:38,1742244998317
41,2025-03-17-22:56:38,152061,183503,56720,56107,0.043,-0.454,0.892,0,76,100,0.0,0,0,0.584,99,97.0,0,0,0,0,0,1,3,0,0,0.5,0.0,0,2025-03-17-22:56:38,1742244998352
42,2025-03-17-22:56:38,152970,184453,56698,56078,0.044,-0.449,0.877,0,76,100,0.0,0,0,0.584,99,97.0,0,0,0,0,0,1,3,0,0,0.5,0.0,0,2025-03-17-22:56:38,1742244998385
43,2025-03-17-22:56:38,153594,185217,56654,56041,0.043,-0.459,0.884,0,76,100,0.0,0,0,0.584,99,97.0,0,0,0,0,0,1,3,0,0,0.5,0.0,0,2025-03-17-22:56:38,1742244998419
44,2025-03-17-22:56:38,153924,185737,56564,55940,0.042,-0.468,0.886,0,76,100,0.0,0,0,0.584,99,97.0,0,0,0,0,0,1,3,0,0,0.5,0.0,0,2025-03-17-22:56:38,1742244998464
45,2025-03-17-22:56:38,154567,186511,56464,55817,0.038,-0.448,0.888,0,76,100,0.0,0,0,0.584,99,97.0,0,0,0,0,0,1,3,0,0,0.5,0.0,0,2025-03-17-22:56:38,1742244998520
46,2025-03-17-22:56:38,155485,187512,56487,55834,0.044,-0.45,0.893,0,76,100,0.0,0,0,0.584,99,97.0,0,0,0,0,0,1,3,0,0,0.5,0.0,0,2025-03-17-22:56:38,1742244998554
47,2025-03-17-22:56:38,156274,188448,56601,55957,0.044,-0.449,0.892,0,76,100,0.0,0,0,0.584,99,97.0,0,0,0,0,0,1,3,0,0,0.5,0.0,0,2025-03-17-22:56:38,1742244998587
48,2025-03-17-22:56:38,156849,189257,56752,56104,0.044,-0.443,0.896,0,76,100,0.0,0,0,0.584,99,97.0,0,0,0,0,0,1,3,0,0,0.5,0.0,0,2025-03-17-22:56:38,1742244998621
49,2025-03-17-22:56:38,157337,190011,56884,56214,0.041,-0.454,0.893,0,76,100,0.0,0,0,0.584,99,97.0,0,0,0,0,0,1,3,0,0,0.5,0.0,0,2025-03-17-22:56:38,1742244998655
50,2025-03-17-22:56:38,158088,190836,56906,56211,0.04,-0.448,0.9,0,76,100,0.0,0,0,0.584,99,97.0,0,0,0,0,0,1,3,0,0,0.5,0.0,0,2025-03-17-22:56:38,1742244998722
51,2025-03-17-22:56:38,159002,191895,56863,56160,0.038,-0.47,0.879,0,76,100,0.0,0,0,0.584,99,97.0,0,0,0,0,0,1,3,0,0,0.5,0.0,0,2025-03-17-22:56:38,1742244998756
52,2025-03-17-22:56:38,159415,192657,56800,56100,0.041,-0.446,0.889,0,76,100,791.9,100,0,0.584,99,97.0,0,0,0,0,0,1,3,0,0,0.5,0.0,19,2025-03-17-22:56:38,1742244998790
53,2025-03-17-22:56:38,158549,191290,56648,55990,0.032,-0.49,0.871,0,76,100,0.0,0,0,0.584,99,97.0,0,0,0,0,0,1,3,0,0,0.5,0.0,0,2025-03-17-22:56:38,1742244998824
54,2025-03-17-22:56:38,157390,188787,56472,55840,0.046,-0.439,0.897,0,76,100,0.0,0,0,0.584,99,97.0,0,0,0,0,0,1,3,0,0,0.5,0.0,0,2025-03-17-22:56:38,1742244998857
55,2025-03-17-22:56:39,156700,187217,56417,55804,0.045,-0.467,0.885,0,76,100,0.0,0,0,0.584,99,97.0,0,0,0,0,0,1,3,0,0,0.5,0.0,0,2025-03-17-22:56:38,1742244998914
56,2025-03-17-22:56:39,156399,186810,56512,55903,0.047,-0.459,0.887,0,76,100,0.0,0,0,0.584,99,97.0,0,0,0,0,0,1,3,0,0,0.5,0.0,0,2025-03-17-22:56:38,1742244998959
57,2025-03-17-22:56:39,156364,187013,56652,56033,0.043,-0.434,0.9,0,76,100,0.0,0,0,0.584,99,97.0,0,0,0,0,0,1,3,0,0,0.5,0.0,0,2025-03-17-22:56:38,1742244998992
58,2025-03-17-22:56:39,156614,187487,56712,56079,0.046,-0.467,0.889,0,76,100,0.0,0,0,0.584,99,97.0,0,0,0,0,0,1,3,0,0,0.5,0.0,0,2025-03-17-22:56:39,1742244999026
59,2025-03-17-22:56:39,157416,188368,56693,56042,0.043,-0.472,0.885,0,76,100,0.0,0,0,0.584,99,97.0,0,0,0,0,0,1,3,0,0,0.5,0.0,0,2025-03-17-22:56:39,1742244999060
60,2025-03-17-22:56:39,158093,189303,56650,55999,0.05,-0.453,0.888,0,76,100,0.0,0,0,0.584,99,97.0,0,0,0,0,0,1,3,0,0,0.5,0.0,0,2025-03-17-22:56:39,1742244999116
61,2025-03-17-22:56:39,158550,190079,56573,55918,0.034,-0.464,0.876,0,76,100,0.0,0,0,0.584,99,96.9,228,0,0,0,0,1,3,0,0,0.5,0.0,0,2025-03-17-22:56:39,1742244999150
62,2025-03-17-22:56:39,159126,190735,56517,55852,0.039,-0.448,0.889,0,76,100,0.0,0,0,0.584,99,96.9,0,0,0,0,0,1,3,0,0,0.5,0.0,0,2025-03-17-22:56:39,1742244999195
63,2025-03-17-22:56:39,159724,191315,56552,55888,0.045,-0.447,0.894,0,76,100,0.0,0,0,0.584,99,96.9,0,0,0,0,0,1,3,0,0,0.5,0.0,0,2025-03-17-22:56:39,1742244999228
64,2025-03-17-22:56:39,160082,191827,56672,56012,0.048,-0.426,0.901,0,76,100,0.0,0,0,0.584,99,96.9,0,1,0,0,1,1,3,0,0,0.5,0.0,0,2025-03-17-22:56:39,1742244999263
65,2025-03-17-22:56:39,160411,192428,56835,56175,0.045,-0.441,0.89,0,76,100,0.0,0,0,0.584,99,96.9,0,1,0,0,1,1,3,0,0,0.5,0.0,0,2025-03-17-22:56:39,1742244999321
66,2025-03-17-22:56:39,160815,193120,56904,56214,0.031,-0.456,0.883,0,76,100,0.0,0,0,0.584,99,96.9,0,1,0,0,1,1,3,0,0,0.5,0.0,0,2025-03-17-22:56:39,1742244999353
67,2025-03-17-22:56:39,161383,193932,56858,56145,0.035,-0.434,0.873,0,76,100,0.0,0,0,0.584,99,96.9,0,1,0,0,1,1,3,0,0,0.5,0.0,0,2025-03-17-22:56:39,1742244999387
68,2025-03-17-22:56:39,161975,194819,56838,56127,0.041,-0.45,0.886,0,76,100,0.0,0,0,0.584,99,96.9,0,0,0,0,0,1,3,0,0,0.5,0.0,0,2025-03-17-22:56:39,1742244999421
69,2025-03-17-22:56:39,162608,195788,56775,56064,0.039,-0.454,0.884,0,76,100,0.0,0,0,0.584,99,96.9,0,0,0,0,0,1,3,0,0,0.5,0.0,0,2025-03-17-22:56:39,1742244999465
70,2025-03-17-22:56:39,163535,196885,56748,56020,0.043,-0.466,0.884,0,76,100,0.0,0,0,0.584,99,96.9,0,0,0,0,0,1,3,0,0,0.5,0.0,0,2025-03-17-22:56:39,1742244999522
71,2025-03-17-22:56:39,164263,197682,56815,56091,0.044,-0.447,0.901,0,76,100,0.0,0,0,0.584,99,96.9,0,0,0,0,0,1,3,0,0,0.5,0.0,0,2025-03-17-22:56:39,1742244999556
72,2025-03-17-22:56:39,163316,196187,56850,56191,0.047,-0.457,0.89,0,76,100,0.0,0,0,0.584,99,96.9,0,0,0,0,0,1,3,0,0,0.5,0.0,0,2025-03-17-22:56:39,1742244999589
73,2025-03-17-22:56:39,161731,193607,56874,56262,0.044,-0.445,0.888,0,76,100,0.0,0,0,0.584,99,96.9,0,0,0,0,0,1,3,0,0,0.5,0.0,0,2025-03-17-22:56:39,1742244999623
74,2025-03-17-22:56:39,160599,191965,56859,56249,0.031,-0.465,0.884,0,76,100,0.0,0,0,0.584,99,96.9,0,0,0,0,0,1,3,0,0,0.5,0.0,0,2025-03-17-22:56:39,1742244999657
75,2025-03-17-22:56:39,160319,191534,56773,56155,0.04,-0.443,0.876,0,76,100,0.0,0,0,0.584,99,96.9,0,0,0,0,0,1,3,0,0,0.5,0.0,0,2025-03-17-22:56:39,1742244999724
76,2025-03-17-22:56:39,160388,191711,56735,56117,0.041,-0.456,0.889,0,76,100,0.0,0,0,0.584,99,96.9,0,0,0,0,0,1,3,0,0,0.5,0.0,0,2025-03-17-22:56:39,1742244999759
77,2025-03-17-22:56:39,160457,192003,56658,56035,0.039,-0.467,0.887,0,76,100,0.0,0,0,0.584,99,96.9,0,0,0,0,0,1,3,0,0,0.5,0.0,0,2025-03-17-22:56:39,1742244999792
78,2025-03-17-22:56:39,160960,192738,56595,55954,0.044,-0.469,0.886,0,76,100,0.0,0,0,0.584,99,96.9,0,0,0,0,0,1,3,0,0,0.5,0.0,0,2025-03-17-22:56:39,1742244999826
79,2025-03-17-22:56:39,161612,193659,56678,56022,0.048,-0.452,0.893,0,76,100,0.0,0,0,0.584,99,96.9,0,0,0,0,0,1,3,0,0,0.5,0.0,0,2025-03-17-22:56:39,1742244999860
80,2025-03-17-22:56:40,161935,194231,56830,56183,0.043,-0.458,0.887,0,76,100,827.5,100,0,0.584,99,96.9,0,0,0,0,0,1,3,0,0,0.5,0.0,28,2025-03-17-22:56:39,1742244999915
81,2025-03-17-22:56:40,162064,194563,56926,56272,0.038,-0.447,0.892,0,76,100,0.0,0,0,0.584,99,96.9,0,0,0,0,0,1,3,0,0,0.5,0.0,0,2025-03-17-22:56:39,1742244999960
82,2025-03-17-22:56:40,162459,195037,56901,56234,0.035,-0.433,0.897,0,76,100,0.0,0,0,0.584,99,96.9,0,0,0,0,0,1,3,0,0,0.5,0.0,0,2025-03-17-22:56:39,1742244999995
83,2025-03-17-22:56:40,163089,195757,56864,56197,0.04,-0.463,0.884,0,76,100,0.0,0,0,0.584,99,96.9,0,0,0,0,0,1,3,0,0,0.5,0.0,0,2025-03-17-22:56:40,1742245000028
84,2025-03-17-22:56:40,163560,196508,56811,56142,0.038,-0.464,0.884,0,76,100,0.0,0,0,0.584,99,96.9,0,0,0,0,0,1,3,0,0,0.5,0.0,0,2025-03-17-22:56:40,1742245000062
85,2025-03-17-22:56:40,164227,197394,56759,56068,0.036,-0.469,0.885,0,76,100,0.0,0,0,0.584,99,96.9,0,0,0,0,0,1,3,0,0,0.5,0.0,0,2025-03-17-22:56:40,1742245000119
86,2025-03-17-22:56:40,165068,198403,56783,56082,0.045,-0.445,0.892,0,76,100,0.0,0,0,0.584,100,97.0,228,0,0,0,0,1,3,0,0,0.5,0.0,0,2025-03-17-22:56:40,1742245000152
87,2025-03-17-22:56:40,165661,199261,56896,56202,0.046,-0.435,0.896,0,76,100,0.0,0,0,0.584,100,97.0,0,0,0,0,0,1,3,0,0,0.5,0.0,0,2025-03-17-22:56:40,1742245000186
88,2025-03-17-22:56:40,166082,199991,57060,56356,0.043,-0.448,0.894,0,76,100,0.0,0,0,0.584,100,97.0,0,0,0,0,0,1,3,0,0,0.5,0.0,0,2025-03-17-22:56:40,1742245000231
89,2025-03-17-22:56:40,166652,200689,57129,56399,0.044,-0.443,0.895,0,76,100,0.0,0,0,0.584,100,97.0,0,0,0,0,0,1,3,0,0,0.5,0.0,0,2025-03-17-22:56:40,1742245000264
90,2025-03-17-22:56:40,167498,201466,57111,56381,0.047,-0.463,0.877,0,77,100,750.1,100,0,0.584,100,97.0,0,0,0,0,0,1,3,0,0,0.5,0.0,10,2025-03-17-22:56:40,1742245000321
91,2025-03-17-22:56:40,166747,200507,57030,56354,0.047,-0.448,0.891,0,77,100,0.0,0,0,0.584,100,97.0,0,0,0,0,0,1,3,0,0,0.5,0.0,0,2025-03-17-22:56:40,1742245000354
92,2025-03-17-22:56:40,165086,197781,56841,56228,0.035,-0.46,0.878,0,77,100,0.0,0,0,0.584,100,97.0,0,0,0,0,0,1,3,0,0,0.5,0.0,0,2025-03-17-22:56:40,1742245000388
93,2025-03-17-22:56:40,164108,196082,56714,56104,0.047,-0.431,0.894,0,77,100,0.0,0,0,0.584,100,97.0,0,0,0,0,0,1,3,0,0,0.5,0.0,0,2025-03-17-22:56:40,1742245000422
94,2025-03-17-22:56:40,163841,195669,56746,56146,0.045,-0.437,0.894,0,77,100,0.0,0,0,0.584,100,97.0,0,0,0,0,0,1,3,0,0,0.5,0.0,0,2025-03-17-22:56:40,1742245000467
95,2025-03-17-22:56:40,163698,195728,56854,56255,0.042,-0.464,0.889,0,77,100,0.0,0,0,0.584,100,97.0,0,0,0,0,0,1,3,0,0,0.5,0.0,0,2025-03-17-22:56:40,1742245000523
96,2025-03-17-22:56:40,163516,195858,56984,56375,0.043,-0.447,0.895,0,77,100,0.0,0,0,0.584,100,97.0,0,0,0,0,0,1,3,0,0,0.5,0.0,0,2025-03-17-22:56:40,1742245000557
97,2025-03-17-22:56:40,163630,196224,57020,56386,0.045,-0.46,0.893,0,77,100,0.0,0,0,0.584,100,97.0,0,0,0,0,0,1,3,0,0,0.5,0.0,0,2025-03-17-22:56:40,1742245000590
98,2025-03-17-22:56:40,164137,196869,56984,56333,0.049,-0.438,0.884,0,77,100,0.0,0,0,0.584,100,97.0,0,0,0,0,0,1,3,0,0,0.5,0.0,0,2025-03-17-22:56:40,1742245000625
99,2025-03-17-22:56:40,164341,197319,56916,56266,0.046,-0.448,0.894,0,77,100,0.0,0,0,0.584,100,97.0,0,0,0,0,0,1,3,0,0,0.5,0.0,0,2025-03-17-22:56:40,1742245000658
100,2025-03-17-22:56:40,164454,197528,56831,56176,0.035,-0.472,0.891,0,77,100,0.0,0,0,0.584,100,97.0,0,0,0,0,0,1,3,0,0,0.5,0.0,0,2025-03-17-22:56:40,1742245000725
101,2025-03-17-22:56:40,164877,197947,56779,56110,0.048,-0.446,0.897,0,77,100,0.0,0,0,0.584,100,97.0,0,0,0,0,0,1,3,0,0,0.5,0.0,0,2025-03-17-22:56:40,1742245000760
102,2025-03-17-22:56:40,165306,198387,56864,56205,0.046,-0.428,0.897,0,77,100,0.0,0,0,0.584,100,97.0,0,0,0,0,0,1,3,0,0,0.5,0.0,0,2025-03-17-22:56:40,1742245000794
103,2025-03-17-22:56:40,165578,198875,57015,56360,0.042,-0.435,0.895,0,77,100,0.0,0,0,0.584,100,97.0,0,0,0,0,0,1,3,0,0,0.5,0.0,0,2025-03-17-22:56:40,1742245000826
104,2025-03-17-22:56:40,165831,199417,57144,56476,0.04,-0.437,0.902,0,77,100,0.0,0,0,0.584,100,97.0,0,0,0,0,0,1,3,0,0,0.5,0.0,0,2025-03-17-22:56:40,1742245000861
105,2025-03-17-22:56:41,166347,200107,57127,56445,0.04,-0.425,0.9,0,77,100,0.0,0,0,0.584,100,97.0,0,0,0,0,0,1,3,0,0,0.5,0.0,0,2025-03-17-22:56:40,1742245000917
106,2025-03-17-22:56:41,166984,200880,57101,56406,0.042,-0.459,0.885,0,77,100,0.0,0,0,0.584,100,97.0,0,0,0,0,0,1,3,0,0,0.5,0.0,0,2025-03-17-22:56:40,1742245000962
107,2025-03-17-22:56:41,167282,201448,57055,56359,0.04,-0.456,0.893,0,77,100,0.0,0,0,0.584,100,97.0,0,0,0,0,0,1,3,0,0,0.5,0.0,0,2025-03-17-22:56:40,1742245000995
108,2025-03-17-22:56:41,167645,201964,57039,56335,0.035,-0.46,0.884,0,77,100,0.0,0,0,0.584,100,97.0,0,0,0,0,0,1,3,0,0,0.5,0.0,0,2025-03-17-22:56:41,1742245001029
109,2025-03-17-22:56:41,168241,202612,57029,56312,0.045,-0.444,0.895,0,77,100,0.0,0,0,0.584,100,97.0,0,0,0,0,0,1,3,0,0,0.5,0.0,0,2025-03-17-22:56:41,1742245001063
110,2025-03-17-22:56:41,167804,201833,56975,56291,0.049,-0.432,0.899,0,77,100,751.1,100,0,0.584,100,97.0,0,0,0,0,0,1,3,0,0,0.5,0.0,20,2025-03-17-22:56:41,1742245001119
111,2025-03-17-22:56:41,166236,199390,56895,56263,0.043,-0.447,0.895,0,77,100,0.0,0,0,0.584,99,97.0,228,0,0,0,0,1,3,0,0,0.5,0.0,0,2025-03-17-22:56:41,1742245001153
112,2025-03-17-22:56:41,164642,197351,56981,56379,0.047,-0.408,0.905,0,77,100,0.0,0,0,0.584,99,97.0,0,0,0,0,0,1,3,0,0,0.5,0.0,0,2025-03-17-22:56:41,1742245001197
113,2025-03-17-22:56:41,163658,196276,57126,56546,0.044,-0.44,0.903,0,77,100,0.0,0,0,0.584,99,97.0,0,0,0,0,0,1,3,0,0,0.5,0.0,0,2025-03-17-22:56:41,1742245001231
114,2025-03-17-22:56:41,163013,195566,57120,56523,0.029,-0.468,0.895,0,77,100,0.0,0,0,0.584,99,97.0,0,0,0,0,0,1,3,0,0,0.5,0.0,0,2025-03-17-22:56:41,1742245001265
115,2025-03-17-22:56:41,162599,195111,57077,56483,0.047,-0.458,0.885,0,77,100,0.0,0,0,0.584,99,97.0,0,0,0,0,0,1,3,0,0,0.5,0.0,0,2025-03-17-22:56:41,1742245001322
116,2025-03-17-22:56:41,162217,194770,57054,56475,0.046,-0.44,0.896,0,77,100,0.0,0,0,0.584,99,97.0,0,0,0,0,0,1,3,0,0,0.5,0.0,0,2025-03-17-22:56:41,1742245001355
117,2025-03-17-22:56:41,161974,194434,57043,56468,0.036,-0.473,0.885,0,77,100,0.0,0,0,0.584,99,97.0,0,0,0,0,0,1,3,0,0,0.5,0.0,0,2025-03-17-22:56:41,1742245001390
118,2025-03-17-22:56:41,162170,194455,56954,56349,0.05,-0.438,0.895,0,77,100,0.0,0,0,0.584,99,97.0,0,0,0,0,0,1,3,0,0,0.5,0.0,0,2025-03-17-22:56:41,1742245001423
119,2025-03-17-22:56:41,162585,194746,56886,56260,0.041,-0.436,0.889,0,77,100,0.0,0,0,0.584,99,97.0,0,0,0,0,0,1,3,0,0,0.6,0.0,0,2025-03-17-22:56:41,1742245001468
120,2025-03-17-22:56:41,162833,194907,56963,56352,0.045,-0.439,0.899,0,77,100,0.0,0,0,0.584,99,97.0,0,0,0,0,0,1,3,0,0,0.6,0.0,0,2025-03-17-22:56:41,1742245001524
121,2025-03-17-22:56:41,162862,195014,57111,56505,0.044,-0.455,0.894,0,77,100,0.0,0,0,0.584,99,97.0,0,0,0,0,0,1,3,0,0,0.6,0.0,0,2025-03-17-22:56:41,1742245001559
122,2025-03-17-22:56:41,162907,195249,57235,56620,0.044,-0.44,0.9,0,77,100,0.0,0,0,0.584,99,97.0,0,0,0,0,0,1,3,0,0,0.6,0.0,0,2025-03-17-22:56:41,1742245001591
123,2025-03-17-22:56:41,163257,195779,57216,56574,0.038,-0.442,0.907,0,77,100,0.0,0,0,0.584,99,97.0,0,0,0,0,0,1,3,0,0,0.6,0.0,0,2025-03-17-22:56:41,1742245001625
124,2025-03-17-22:56:41,163801,196455,57170,56520,0.044,-0.454,0.885,0,77,100,0.0,0,0,0.584,99,97.0,0,0,0,0,0,1,3,0,0,0.6,0.0,0,2025-03-17-22:56:41,1742245001659
125,2025-03-17-22:56:41,164168,197029,57115,56465,0.046,-0.446,0.892,0,77,100,0.0,0,0,0.584,99,97.0,0,0,0,0,0,1,3,0,0,0.6,0.0,0,2025-03-17-22:56:41,1742245001727
126,2025-03-17-22:56:41,164739,197655,57022,56348,0.038,-0.457,0.883,0,77,100,0.0,0,0,0.584,99,97.0,0,0,0,0,0,1,3,0,0,0.6,0.0,0,2025-03-17-22:56:41,1742245001760
127,2025-03-17-22:56:41,165622,198587,56974,56263,0.049,-0.423,0.9,0,77,100,0.0,0,0,0.584,99,97.0,0,0,0,0,0,1,3,0,0,0.6,0.0,0,2025-03-17-22:56:41,1742245001794
128,2025-03-17-22:56:41,166394,199433,57068,56352,0.048,-0.438,0.898,0,77,100,0.0,0,0,0.584,99,97.0,0,0,0,0,0,1,3,0,0,0.6,0.0,0,2025-03-17-22:56:41,1742245001828
129,2025-03-17-22:56:41,166461,199642,57209,56510,0.042,-0.46,0.893,0,77,100,763.7,100,0,0.584,99,97.0,0,0,0,0,0,1,3,0,0,0.6,0.0,19,2025-03-17-22:56:41,1742245001873
130,2025-03-17-22:56:42,164985,197715,57268,56609,0.041,-0.44,0.899,0,77,100,0.0,0,0,0.584,99,97.0,0,0,0,0,0,1,3,0,0,0.6,0.0,0,2025-03-17-22:56:41,1742245001918
131,2025-03-17-22:56:42,163315,195362,57153,56533,0.042,-0.428,0.907,0,77,100,0.0,0,0,0.584,99,97.0,0,0,0,0,0,1,3,0,0,0.6,0.0,0,2025-03-17-22:56:41,1742245001962
132,2025-03-17-22:56:42,162487,194240,57061,56452,0.048,-0.469,0.885,0,77,100,0.0,0,0,0.584,99,97.0,0,0,0,0,0,1,3,0,0,0.6,0.0,0,2025-03-17-22:56:41,1742245001997
133,2025-03-17-22:56:42,162037,193958,56985,56373,0.046,-0.443,0.894,0,77,100,0.0,0,0,0.584,99,97.0,0,0,0,0,0,1,3,0,0,0.6,0.0,0,2025-03-17-22:56:42,1742245002030
134,2025-03-17-22:56:42,161852,194034,56879,56240,0.035,-0.462,0.883,0,77,100,0.0,0,0,0.584,99,97.0,0,0,0,0,0,1,3,0,0,0.6,0.0,0,2025-03-17-22:56:42,1742245002064
135,2025-03-17-22:56:42,162018,194398,56842,56174,0.042,-0.424,0.897,0,77,100,0.0,0,0,0.584,99,97.0,0,0,0,0,0,1,3,0,0,0.6,0.0,0,2025-03-17-22:56:42,1742245002119
136,2025-03-17-22:56:42,162378,194981,56920,56243,0.045,-0.446,0.893,0,77,100,0.0,0,0,0.584,99,97.0,228,0,0,0,0,1,3,0,0,0.6,0.0,0,2025-03-17-22:56:42,1742245002153
137,2025-03-17-22:56:42,162469,195363,57047,56375,0.044,-0.442,0.899,0,77,100,0.0,0,0,0.584,99,97.0,0,0,0,0,0,1,3,0,0,0.6,0.0,0,2025-03-17-22:56:42,1742245002187
138,2025-03-17-22:56:42,162329,195480,57185,56518,0.046,-0.423,0.907,0,77,100,0.0,0,0,0.584,99,97.0,0,0,0,0,0,1,3,0,0,0.6,0.0,0,2025-03-17-22:56:42,1742245002232
139,2025-03-17-22:56:42,162231,195451,57215,56539,0.042,-0.439,0.895,0,77,100,0.0,0,0,0.584,99,97.0,0,0,0,0,0,1,3,0,0,0.6,0.0,0,2025-03-17-22:56:42,1742245002287
140,2025-03-17-22:56:42,162362,195482,57179,56508,0.046,-0.471,0.883,0,77,100,0.0,0,0,0.584,99,97.0,0,0,0,0,0,1,3,0,0,0.6,0.0,0,2025-03-17-22:56:42,1742245002322
141,2025-03-17-22:56:42,162367,195557,57129,56465,0.049,-0.435,0.897,0,77,100,0.0,0,0,0.584,99,97.0,0,0,0,0,0,1,3,0,0,0.6,0.0,0,2025-03-17-22:56:42,1742245002356
142,2025-03-17-22:56:42,162378,195621,57076,56406,0.035,-0.471,0.885,0,77,100,0.0,0,0,0.584,99,97.0,0,0,0,0,0,1,3,0,0,0.6,0.0,0,2025-03-17-22:56:42,1742245002389
143,2025-03-17-22:56:42,162766,195958,57029,56343,0.047,-0.433,0.893,0,77,100,0.0,0,0,0.584,99,97.0,0,0,0,0,0,1,3,0,0,0.6,0.0,0,2025-03-17-22:56:42,1742245002423
144,2025-03-17-22:56:42,163292,196477,57019,56308,0.047,-0.435,0.9,0,77,100,0.0,0,0,0.584,99,97.0,0,0,0,0,0,1,3,0,0,0.6,0.0,0,2025-03-17-22:56:42,1742245002468
145,2025-03-17-22:56:42,163701,197016,57095,56384,0.05,-0.414,0.903,0,77,100,0.0,0,0,0.584,99,97.0,0,0,0,0,0,1,3,0,0,0.6,0.0,0,2025-03-17-22:56:42,1742245002524
146,2025-03-17-22:56:42,163992,197514,57254,56547,0.046,-0.413,0.902,0,77,100,0.0,0,0,0.584,99,97.0,0,0,0,0,0,1,3,0,0,0.6,0.0,0,2025-03-17-22:56:42,1742245002558
147,2025-03-17-22:56:42,164358,197947,57409,56714,0.039,-0.448,0.897,0,77,100,0.0,0,0,0.584,99,97.0,0,0,0,0,0,1,3,0,0,0.6,0.0,0,2025-03-17-22:56:42,1742245002592
148,2025-03-17-22:56:42,164296,197274,57391,56739,0.044,-0.43,0.9,0,77,100,0.0,0,0,0.584,99,97.0,0,0,0,0,0,1,3,0,0,0.6,0.0,0,2025-03-17-22:56:42,1742245002625
149,2025-03-17-22:56:42,162765,194763,57241,56653,0.041,-0.453,0.889,0,77,100,762.2,100,0,0.584,99,97.0,0,0,0,0,0,1,3,0,0,0.6,0.0,20,2025-03-17-22:56:42,1742245002659
150,2025-03-17-22:56:42,160789,192163,57061,56507,0.042,-0.455,0.887,0,77,100,0.0,0,0,0.584,99,97.0,0,0,0,0,0,1,3,0,0,0.6,0.0,0,2025-03-17-22:56:42,1742245002727
151,2025-03-17-22:56:42,159760,190849,56914,56339,0.044,-0.452,0.884,0,77,100,0.0,0,0,0.584,99,97.0,0,0,0,0,0,1,3,0,0,0.6,0.0,0,2025-03-17-22:56:42,1742245002761
152,2025-03-17-22:56:42,159583,190646,56805,56191,0.046,-0.44,0.898,0,77,100,0.0,0,0,0.584,99,97.0,0,0,0,0,0,1,3,0,0,0.6,0.0,0,2025-03-17-22:56:42,1742245002794
153,2025-03-17-22:56:42,159789,190981,56762,56126,0.048,-0.449,0.893,0,77,100,0.0,0,0,0.584,99,97.0,0,0,0,0,0,1,3,0,0,0.6,0.0,0,2025-03-17-22:56:42,1742245002828
154,2025-03-17-22:56:42,159878,191298,56923,56298,0.048,-0.425,0.905,0,77,100,0.0,0,0,0.584,99,97.0,0,1,0,0,1,1,3,0,0,0.6,0.0,0,2025-03-17-22:56:42,1742245002862
155,2025-03-17-22:56:43,159924,191567,57131,56505,0.045,-0.432,0.9,0,77,100,0.0,0,0,0.584,99,97.0,0,1,0,0,1,1,3,0,0,0.6,0.0,0,2025-03-17-22:56:42,1742245002918
156,2025-03-17-22:56:43,160001,191742,57180,56541,0.046,-0.44,0.896,0,77,100,0.0,0,0,0.584,99,97.0,0,1,0,0,1,1,3,0,0,0.6,0.0,0,2025-03-17-22:56:42,1742245002963
157,2025-03-17-22:56:43,160136,191702,57161,56534,0.043,-0.438,0.887,0,77,100,0.0,0,0,0.584,99,97.0,0,1,0,0,1,1,3,0,0,0.6,0.0,0,2025-03-17-22:56:42,1742245002997
158,2025-03-17-22:56:43,160100,191537,57118,56504,0.045,-0.432,0.89,0,77,100,0.0,0,0,0.584,99,97.0,0,1,0,0,1,1,3,0,0,0.6,0.0,0,2025-03-17-22:56:43,1742245003031
159,2025-03-17-22:56:43,159746,191191,57047,56437,0.042,-0.442,0.899,0,77,100,0.0,0,0,0.584,99,97.0,0,1,0,0,1,1,3,0,0,0.6,0.0,0,2025-03-17-22:56:43,1742245003064
160,2025-03-17-22:56:43,159679,191082,56995,56382,0.042,-0.453,0.878,0,76,100,0.0,0,0,0.584,99,97.0,0,1,0,0,1,1,3,0,0,0.6,0.0,0,2025-03-17-22:56:43,1742245003121
161,2025-03-17-22:56:43,159992,191365,56946,56310,0.046,-0.435,0.898,0,76,100,0.0,0,0,0.584,99,97.0,228,1,0,0,1,1,3,0,0,0.6,0.0,0,2025-03-17-22:56:43,1742245003154
162,2025-03-17-22:56:43,160369,191726,56968,56322,0.045,-0.446,0.891,0,76,100,0.0,0,0,0.584,99,97.0,0,1,0,0,1,1,3,0,0,0.6,0.0,0,2025-03-17-22:56:43,1742245003188
163,2025-03-17-22:56:43,160766,192105,57078,56431,0.049,-0.429,0.896,0,76,100,0.0,0,0,0.584,99,97.0,0,0,0,0,0,1,3,0,0,0.6,0.0,0,2025-03-17-22:56:43,1742245003233
164,2025-03-17-22:56:43,161198,192611,57180,56528,0.043,-0.431,0.902,0,76,100,0.0,0,0,0.584,99,97.0,0,0,0,0,0,1,3,0,0,0.6,0.0,0,2025-03-17-22:56:43,1742245003299
165,2025-03-17-22:56:43,161787,193225,57304,56646,0.046,-0.437,0.901,0,76,100,0.0,0,0,0.584,99,97.0,0,0,0,0,0,1,3,0,0,0.6,0.0,0,2025-03-17-22:56:43,1742245003323
166,2025-03-17-22:56:43,162311,193405,57369,56738,0.041,-0.442,0.897,0,76,100,0.0,0,0,0.584,99,97.0,0,0,0,0,0,1,3,0,0,0.6,0.0,0,2025-03-17-22:56:43,1742245003357
167,2025-03-17-22:56:43,161603,191570,57289,56721,0.044,-0.444,0.886,0,76,100,0.0,0,0,0.584,99,97.0,0,0,0,0,0,1,3,0,0,0.6,0.0,0,2025-03-17-22:56:43,1742245003390
168,2025-03-17-22:56:43,159859,188794,57095,56566,0.051,-0.445,0.9,0,76,100,778.9,100,0,0.584,99,97.0,0,0,0,0,0,1,3,0,0,0.6,0.0,19,2025-03-17-22:56:43,1742245003424
169,2025-03-17-22:56:43,158493,187015,56856,56308,0.038,-0.456,0.884,0,76,100,0.0,0,0,0.584,99,97.0,0,0,0,0,0,1,3,0,0,0.6,0.0,0,2025-03-17-22:56:43,1742245003458
170,2025-03-17-22:56:43,158019,186433,56702,56111,0.047,-0.425,0.908,0,76,100,0.0,0,0,0.584,99,97.0,0,0,0,0,0,1,3,0,0,0.6,0.0,0,2025-03-17-22:56:43,1742245003525
171,2025-03-17-22:56:43,157848,186304,56706,56098,0.049,-0.45,0.899,0,76,100,0.0,0,0,0.584,99,97.0,0,1,0,0,1,1,3,0,0,0.6,0.0,0,2025-03-17-22:56:43,1742245003559
172,2025-03-17-22:56:43,157496,186109,56832,56227,0.05,-0.41,0.909,0,76,100,0.0,0,0,0.584,99,97.0,0,1,0,0,1,1,3,0,0,0.6,0.0,0,2025-03-17-22:56:43,1742245003593
173,2025-03-17-22:56:43,157243,186141,56999,56393,0.046,-0.416,0.904,0,76,100,0.0,0,0,0.584,99,97.0,0,1,0,0,1,1,3,0,0,0.6,0.0,0,2025-03-17-22:56:43,1742245003627
174,2025-03-17-22:56:43,157079,186337,57073,56440,0.044,-0.431,0.9,0,76,100,0.0,0,0,0.584,99,97.0,0,1,0,0,1,1,3,0,0,0.6,0.0,0,2025-03-17-22:56:43,1742245003660
175,2025-03-17-22:56:43,156821,186369,57064,56433,0.041,-0.425,0.897,0,76,100,0.0,0,0,0.584,99,97.0,0,1,0,0,1,1,3,0,0,0.6,0.0,0,2025-03-17-22:56:43,1742245003728
176,2025-03-17-22:56:43,156513,186120,57037,56415,0.049,-0.405,0.899,0,76,100,0.0,0,0,0.584,99,97.0,0,1,0,0,1,1,3,0,0,0.6,0.0,0,2025-03-17-22:56:43,1742245003762
177,2025-03-17-22:56:43,155858,185618,56948,56325,0.047,-0.422,0.899,0,76,100,0.0,0,0,0.584,99,97.0,0,1,0,0,1,1,3,0,0,0.6,0.0,0,2025-03-17-22:56:43,1742245003795
178,2025-03-17-22:56:43,155487,185253,56835,56182,0.047,-0.437,0.894,0,76,100,0.0,0,0,0.584,99,97.0,0,1,0,0,1,1,3,0,0,0.6,0.0,0,2025-03-17-22:56:43,1742245003829
179,2025-03-17-22:56:43,155418,185221,56793,56111,0.048,-0.404,0.912,0,76,100,0.0,0,0,0.584,99,97.0,0,1,0,0,1,1,3,0,0,0.6,0.0,0,2025-03-17-22:56:43,1742245003863
180,2025-03-17-22:56:44,155346,185242,56796,56098,0.051,-0.41,0.908,0,76,100,0.0,0,0,0.584,99,97.0,0,1,0,0,1,1,3,0,0,0.6,0.0,0,2025-03-17-22:56:43,1742245003919
181,2025-03-17-22:56:44,155139,185237,56861,56159,0.049,-0.402,0.914,0,76,100,0.0,0,0,0.584,99,97.0,0,1,0,0,1,1,3,0,0,0.6,0.0,0,2025-03-17-22:56:43,1742245003954
182,2025-03-17-22:56:44,155060,185296,56950,56266,0.045,-0.406,0.909,0,76,100,0.0,0,0,0.584,99,97.0,0,1,0,0,1,1,3,0,0,0.6,0.0,0,2025-03-17-22:56:43,1742245003998
183,2025-03-17-22:56:44,155093,185337,57012,56336,0.049,-0.409,0.908,0,76,100,0.0,0,0,0.584,99,97.0,0,1,0,0,1,1,3,0,0,0.6,0.0,0,2025-03-17-22:56:44,1742245004032
184,2025-03-17-22:56:44,155119,185128,57073,56428,0.05,-0.412,0.911,0,76,100,0.0,0,0,0.584,99,97.0,0,1,0,0,1,1,3,0,0,0.6,0.0,0,2025-03-17-22:56:44,1742245004066
185,2025-03-17-22:56:44,153966,183055,57071,56499,0.048,-0.418,0.91,0,76,100,0.0,0,0,0.584,99,97.0,0,1,0,0,1,1,3,0,0,0.6,0.0,0,2025-03-17-22:56:44,1742245004122
186,2025-03-17-22:56:44,151347,178641,56986,56502,0.047,-0.403,0.908,0,76,100,0.0,0,0,0.584,99,97.0,228,1,0,0,1,1,3,0,0,0.6,0.0,0,2025-03-17-22:56:44,1742245004155
187,2025-03-17-22:56:44,148618,173922,56938,56535,0.047,-0.41,0.91,0,76,100,776.4,100,0,0.584,99,97.0,0,1,0,0,1,1,3,0,0,0.6,0.0,0,2025-03-17-22:56:44,1742245004189
188,2025-03-17-22:56:44,146497,169891,56960,56639,0.046,-0.414,0.908,0,76,100,0.0,0,0,0.584,99,97.0,0,1,0,0,1,1,3,0,0,0.6,0.0,0,2025-03-17-22:56:44,1742245004234
189,2025-03-17-22:56:44,144797,166230,56975,56750,0.047,-0.417,0.905,0,76,100,0.0,0,0,0.584,99,97.0,0,1,0,0,1,1,3,0,0,0.6,0.0,0,2025-03-17-22:56:44,1742245004300
190,2025-03-17-22:56:44,143340,162833,56963,56823,0.045,-0.416,0.907,0,76,100,0.0,0,0,0.584,99,97.0,0,1,0,0,1,1,3,0,0,0.6,0.0,0,2025-03-17-22:56:44,1742245004324
191,2025-03-17-22:56:44,142277,159961,56916,56817,0.046,-0.427,0.902,0,76,100,0.0,0,0,0.584,99,97.0,0,1,0,0,1,1,3,0,0,0.6,0.0,0,2025-03-17-22:56:44,1742245004358
192,2025-03-17-22:56:44,141680,157986,56895,56798,0.044,-0.433,0.9,0,76,100,0.0,0,0,0.584,99,97.0,0,1,0,0,1,1,3,0,0,0.6,0.0,0,2025-03-17-22:56:44,1742245004391
193,2025-03-17-22:56:44,141165,156275,56887,56803,0.043,-0.429,0.902,0,76,100,0.0,0,0,0.584,99,97.0,0,1,0,0,1,1,3,0,0,0.6,0.0,0,2025-03-17-22:56:44,1742245004425
194,2025-03-17-22:56:44,140589,154504,56861,56789,0.045,-0.43,0.899,0,76,100,0.0,0,0,0.584,99,97.0,0,1,0,0,1,1,3,0,0,0.6,0.0,0,2025-03-17-22:56:44,1742245004470
195,2025-03-17-22:56:44,140052,152938,56830,56767,0.044,-0.438,0.899,0,76,100,0.0,0,0,0.584,99,97.0,0,1,0,0,1,1,3,0,0,0.6,0.0,0,2025-03-17-22:56:44,1742245004527
196,2025-03-17-22:56:44,139748,151750,56783,56722,0.044,-0.44,0.895,0,76,100,0.0,0,0,0.584,99,97.0,0,1,0,0,1,1,3,0,0,0.6,0.0,0,2025-03-17-22:56:44,1742245004560
197,2025-03-17-22:56:44,139867,151270,56700,56621,0.045,-0.43,0.899,0,76,100,0.0,0,0,0.584,99,97.0,0,1,0,0,1,1,3,0,0,0.6,0.0,0,2025-03-17-22:56:44,1742245004594
198,2025-03-17-22:56:44,140303,151401,56652,56554,0.045,-0.437,0.898,0,76,100,0.0,0,0,0.584,99,97.0,0,1,0,0,1,1,3,0,0,0.6,0.0,0,2025-03-17-22:56:44,1742245004628
199,2025-03-17-22:56:44,140886,151911,56617,56503,0.043,-0.441,0.896,0,76,100,0.0,0,0,0.584,99,97.0,0,1,0,0,1,1,3,0,0,0.6,0.0,0,2025-03-17-22:56:44,1742245004661
200,2025-03-17-22:56:44,141562,152527,56614,56496,0.044,-0.447,0.895,0,76,100,0.0,0,0,0.584,99,97.0,0,1,0,0,1,1,3,0,0,0.6,0.0,0,2025-03-17-22:56:44,1742245004729
201,2025-03-17-22:56:44,142283,153118,56645,56513,0.045,-0.443,0.897,0,76,100,0.0,0,0,0.584,99,97.0,0,1,0,0,1,1,3,0,0,0.6,0.0,0,2025-03-17-22:56:44,1742245004763
202,2025-03-17-22:56:44,143151,153855,56639,56493,0.042,-0.446,0.895,0,76,100,0.0,0,0,0.584,99,97.0,0,1,0,0,1,1,3,0,0,0.6,0.0,0,2025-03-17-22:56:44,1742245004796
203,2025-03-17-22:56:44,143942,154726,56627,56464,0.043,-0.447,0.897,0,76,100,0.0,0,0,0.584,99,97.0,0,1,0,0,1,1,3,0,0,0.6,0.0,0,2025-03-17-22:56:44,1742245004830
204,2025-03-17-22:56:44,143355,154361,56509,56355,0.044,-0.445,0.895,0,76,100,0.0,0,0,0.584,99,97.0,0,1,0,0,1,1,3,0,0,0.6,0.0,0,2025-03-17-22:56:44,1742245004864
205,2025-03-17-22:56:45,142055,153356,56357,56171,0.046,-0.438,0.894,0,76,100,738.6,100,0,0.584,99,97.0,0,1,0,0,1,1,3,0,0,0.6,0.0,37,2025-03-17-22:56:44,1742245004920
206,2025-03-17-22:56:45,141182,153234,56448,56226,0.044,-0.465,0.891,0,76,100,0.0,0,0,0.584,99,97.0,0,1,0,0,1,1,3,0,0,0.6,0.0,0,2025-03-17-22:56:44,1742245004954
207,2025-03-17-22:56:45,140602,153736,56879,56641,0.053,-0.403,0.909,0,76,100,0.0,0,0,0.584,99,97.0,0,1,0,0,1,1,3,0,0,0.6,0.0,0,2025-03-17-22:56:44,1742245004999
208,2025-03-17-22:56:45,140034,154399,57285,57043,0.053,-0.421,0.911,0,76,100,0.0,0,0,0.584,99,97.0,0,1,0,0,1,1,3,0,0,0.6,0.0,0,2025-03-17-22:56:45,1742245005033
209,2025-03-17-22:56:45,139535,155359,57486,57220,0.059,-0.363,0.931,0,76,100,0.0,0,0,0.584,99,97.0,0,1,0,0,1,1,3,0,0,0.6,0.0,0,2025-03-17-22:56:45,1742245005066
210,2025-03-17-22:56:45,139498,156779,57574,57314,0.052,-0.433,0.903,0,76,100,0.0,0,0,0.584,99,97.0,0,1,0,0,1,1,3,0,0,0.6,0.0,0,2025-03-17-22:56:45,1742245005123
211,2025-03-17-22:56:45,139953,158915,57618,57356,0.052,-0.425,0.906,0,76,100,0.0,0,0,0.584,99,97.0,228,1,0,0,1,1,3,0,0,0.6,0.0,0,2025-03-17-22:56:45,1742245005157
212,2025-03-17-22:56:45,140360,161430,57706,57406,0.055,-0.412,0.917,0,76,100,0.0,0,0,0.584,99,97.0,0,1,0,0,1,1,3,0,0,0.6,0.0,0,2025-03-17-22:56:45,1742245005190
213,2025-03-17-22:56:45,140672,163964,57764,57442,0.054,-0.41,0.907,0,76,100,0.0,0,0,0.584,99,97.0,0,1,0,0,1,1,3,0,0,0.6,0.0,0,2025-03-17-22:56:45,1742245005235
214,2025-03-17-22:56:45,141135,166306,57836,57504,0.056,-0.413,0.904,0,76,100,0.0,0,0,0.584,99,97.0,0,1,0,0,1,1,3,0,0,0.6,0.0,0,2025-03-17-22:56:45,1742245005301
215,2025-03-17-22:56:45,141824,168457,57898,57548,0.054,-0.428,0.903,0,76,100,0.0,0,0,0.584,99,97.0,0,1,0,0,1,1,3,0,0,0.6,0.0,0,2025-03-17-22:56:45,1742245005325
216,2025-03-17-22:56:45,142712,170737,57923,57532,0.062,-0.395,0.908,0,76,100,0.0,0,0,0.584,99,97.0,0,1,0,0,1,1,3,0,0,0.6,0.0,0,2025-03-17-22:56:45,1742245005359
217,2025-03-17-22:56:45,143779,172984,57944,57522,0.057,-0.429,0.895,0,76,100,0.0,0,0,0.584,99,97.0,0,1,0,0,1,1,3,0,0,0.6,0.0,0,2025-03-17-22:56:45,1742245005393
218,2025-03-17-22:56:45,145132,174873,57971,57518,0.057,-0.431,0.901,0,76,100,0.0,0,0,0.584,99,97.0,0,1,0,0,1,1,3,0,0,0.6,0.0,0,2025-03-17-22:56:45,1742245005426
219,2025-03-17-22:56:45,146240,176566,57980,57480,0.061,-0.4,0.908,0,76,100,0.0,0,0,0.584,99,97.0,0,1,0,0,1,1,3,0,0,0.6,0.0,0,2025-03-17-22:56:45,1742245005460
220,2025-03-17-22:56:45,147452,178286,57874,57333,0.057,-0.413,0.905,0,76,100,0.0,0,0,0.584,99,97.0,0,1,0,0,1,1,3,0,0,0.6,0.0,0,2025-03-17-22:56:45,1742245005528
221,2025-03-17-22:56:45,149129,179987,57837,57294,0.053,-0.442,0.897,0,76,100,0.0,0,0,0.584,99,97.0,0,1,0,0,1,1,3,0,0,0.6,0.0,0,2025-03-17-22:56:45,1742245005561
222,2025-03-17-22:56:45,150849,181390,57928,57409,0.05,-0.458,0.896,0,76,100,0.0,0,0,0.584,99,97.0,0,1,0,0,1,1,3,0,0,0.7,0.0,0,2025-03-17-22:56:45,1742245005595
223,2025-03-17-22:56:45,151145,181621,57924,57453,0.058,-0.424,0.902,0,76,100,0.0,0,0,0.584,99,97.0,0,1,0,0,1,1,3,0,0,0.7,0.0,0,2025-03-17-22:56:45,1742245005629
224,2025-03-17-22:56:45,150556,180439,57798,57386,0.053,-0.44,0.893,0,76,100,0.0,0,0,0.584,99,97.0,0,1,0,0,1,1,3,0,0,0.7,0.0,0,2025-03-17-22:56:45,1742245005663
225,2025-03-17-22:56:45,150266,179692,57704,57302,0.052,-0.439,0.903,0,76,100,750.0,100,0,0.584,99,97.0,0,1,0,0,1,1,3,0,0,0.7,0.0,20,2025-03-17-22:56:45,1742245005719
226,2025-03-17-22:56:45,150458,179889,57656,57214,0.054,-0.429,0.897,0,76,100,0.0,0,0,0.584,99,97.0,0,1,0,0,1,1,3,0,0,0.7,0.0,0,2025-03-17-22:56:45,1742245005774
227,2025-03-17-22:56:45,151014,180869,57605,57128,0.052,-0.446,0.893,0,76,100,0.0,0,0,0.584,99,97.0,0,1,0,0,1,1,3,0,0,0.7,0.0,0,2025-03-17-22:56:45,1742245005798
228,2025-03-17-22:56:45,151777,182189,57572,57054,0.053,-0.436,0.9,0,76,100,0.0,0,0,0.584,99,97.0,0,1,0,0,1,1,3,0,0,0.7,0.0,0,2025-03-17-22:56:45,1742245005831
229,2025-03-17-22:56:45,152764,183766,57546,56979,0.057,-0.437,0.896,0,76,100,0.0,0,0,0.584,99,97.0,0,1,0,0,1,1,3,0,0,0.7,0.0,0,2025-03-17-22:56:45,1742245005865
230,2025-03-17-22:56:46,153923,185399,57556,56959,0.055,-0.444,0.895,0,76,100,0.0,0,0,0.584,99,97.0,0,1,0,0,1,1,3,0,0,0.7,0.0,0,2025-03-17-22:56:45,1742245005921
231,2025-03-17-22:56:46,155076,186866,57560,56949,0.055,-0.436,0.899,0,76,100,0.0,0,0,0.584,99,97.0,0,1,0,0,1,1,3,0,0,0.7,0.0,0,2025-03-17-22:56:45,1742245005955
232,2025-03-17-22:56:46,156040,188203,57531,56903,0.054,-0.445,0.892,0,76,100,0.0,0,0,0.584,99,97.0,0,1,0,0,1,1,3,0,0,0.7,0.0,0,2025-03-17-22:56:46,1742245006000
233,2025-03-17-22:56:46,156900,189313,57491,56848,0.053,-0.447,0.895,0,76,100,0.0,0,0,0.584,99,97.0,0,1,0,0,1,1,3,0,0,0.7,0.0,0,2025-03-17-22:56:46,1742245006034
234,2025-03-17-22:56:46,157793,190543,57451,56784,0.054,-0.451,0.89,0,76,100,0.0,0,0,0.584,99,97.0,0,1,0,0,1,1,3,0,0,0.7,0.0,0,2025-03-17-22:56:46,1742245006068
235,2025-03-17-22:56:46,158681,191846,57420,56720,0.053,-0.447,0.89,0,77,100,0.0,0,0,0.584,99,97.0,0,1,0,0,1,1,3,0,0,0.7,0.0,0,2025-03-17-22:56:46,1742245006124
236,2025-03-17-22:56:46,159412,193082,57394,56656,0.053,-0.438,0.893,0,77,100,0.0,0,0,0.584,99,97.0,228,1,0,0,1,1,3,0,0,0.7,0.0,0,2025-03-17-22:56:46,1742245006157
237,2025-03-17-22:56:46,159866,194187,57324,56542,0.052,-0.447,0.891,0,77,100,0.0,0,0,0.584,99,97.0,0,1,0,0,1,1,3,0,0,0.7,0.0,0,2025-03-17-22:56:46,1742245006191
238,2025-03-17-22:56:46,160193,195261,57259,56446,0.055,-0.437,0.898,0,77,100,0.0,0,0,0.584,99,97.0,0,1,0,0,1,1,3,0,0,0.7,0.0,0,2025-03-17-22:56:46,1742245006236
239,2025-03-17-22:56:46,160608,196352,57253,56434,0.053,-0.447,0.893,0,77,100,0.0,0,0,0.584,99,97.0,0,1,0,0,1,1,3,0,0,0.7,0.0,0,2025-03-17-22:56:46,1742245006302
240,2025-03-17-22:56:46,161345,197470,57271,56459,0.053,-0.429,0.896,0,77,100,0.0,0,0,0.584,99,97.0,0,1,0,0,1,1,3,0,0,0.7,0.0,0,2025-03-17-22:56:46,1742245006326
241,2025-03-17-22:56:46,162557,198798,57218,56411,0.048,-0.48,0.885,0,77,100,0.0,0,0,0.584,99,97.0,0,1,0,0,1,1,3,0,0,0.7,0.0,0,2025-03-17-22:56:46,1742245006360
242,2025-03-17-22:56:46,162752,199533,57137,56373,0.046,-0.464,0.885,0,77,100,0.0,0,0,0.584,99,97.0,0,1,0,0,1,1,3,0,0,0.7,0.0,0,2025-03-17-22:56:46,1742245006394
243,2025-03-17-22:56:46,161546,198697,57033,56307,0.05,-0.455,0.887,0,77,100,0.0,0,0,0.584,99,97.0,0,1,0,0,1,1,3,0,0,0.7,0.0,0,2025-03-17-22:56:46,1742245006428
244,2025-03-17-22:56:46,160451,197963,56980,56269,0.051,-0.436,0.895,0,77,100,754.9,100,0,0.584,99,97.0,0,1,0,0,1,1,3,0,0,0.7,0.0,19,2025-03-17-22:56:46,1742245006461
245,2025-03-17-22:56:46,160083,198207,57034,56343,0.048,-0.439,0.895,0,77,100,0.0,0,0,0.584,99,97.0,0,1,0,0,1,1,3,0,0,0.7,0.0,0,2025-03-17-22:56:46,1742245006529
